Group,subID,trial,TimePressure,TimeConstraint,Vagueness,Vaguenesscode,ID1,ID2,ID3,V1,V2,V3,ID_left,ID_middle,ID_right,Bid_left,Bid_middle,Bid_right,chosenItem,RT,RTvariance,chosenPosition,chosenID,chosenValue,fixation_time,option_time,choice_time,feedback_time,timeout,Definitive,sdV1,sdV2,sdV3
1,22102402,1,High,1.5,Vague,1,18,17,36,89.9,90,9.3,17,36,18,90,9.3,89.9,2,0.746,0,L,17,90,6.197,7.389,8.135,8.139,0,0,0.141421356,0.047140452,1.020892855
1,22102402,2,High,1.5,Vague,1,14,15,20,17.3,42.7,2.6,14,20,15,17.3,2.6,42.7,1,0.691,0,L,14,17.3,8.644,10.284,10.975,10.978,0,0,1.465908895,1.067707825,0.571547607
1,22102402,3,High,1.5,Vague,1,14,10,22,17.3,31.7,4,22,14,10,4,17.3,31.7,1,0.844,0.001,D,14,17.3,11.483,13.619,14.463,14.466,0,0,1.465908895,1.219289411,2.02155056
1,22102402,4,High,1.5,Precise,0,18,17,8,89.9,90,6.6,17,18,8,90,89.9,6.6,2,0.645,0,L,17,90,14.971,16.443,17.087,17.09,0,1,0.141421356,0.047140452,2.662079388
1,22102402,5,High,1.5,Precise,0,18,17,7,89.9,90,2.2,7,17,18,2.2,90,89.9,2,0.87,0,D,17,90,17.594,20.105,20.975,20.98,0,1,0.141421356,0.047140452,0.40824829
1,22102402,6,High,1.5,Vague,1,10,17,27,31.7,90,6.4,27,10,17,6.4,31.7,90,2,0.583,0.001,R,17,90,21.485,22.832,23.415,23.418,0,0,1.219289411,0.047140452,0.804155872
1,22102402,7,High,1.5,Precise,0,15,18,13,42.7,89.9,2.4,18,15,13,89.9,42.7,2.4,2,0.752,0,L,18,89.9,23.921,26.791,27.543,27.546,0,1,1.067707825,0.141421356,0.865383666
1,22102402,8,High,1.5,Precise,0,15,17,7,42.7,90,2.2,17,15,7,90,42.7,2.2,2,0.58,0.001,L,17,90,28.049,30.531,31.111,31.114,0,1,1.067707825,0.047140452,0.40824829
1,22102402,9,High,1.5,Precise,0,14,15,13,17.3,42.7,2.4,14,13,15,17.3,2.4,42.7,1,0.834,0.001,L,14,17.3,31.617,32.861,33.695,33.698,0,1,1.465908895,1.067707825,0.865383666
1,22102402,10,High,1.5,Vague,1,10,16,23,31.7,64.9,2.3,16,10,23,64.9,31.7,2.3,2,1.033,0,L,16,64.9,34.201,35.189,36.223,36.225,0,0,1.219289411,12.09802555,0.899382504
1,22102402,11,High,1.5,Precise,0,14,10,12,17.3,31.7,11.7,14,10,12,17.3,31.7,11.7,1,1.243,0,L,14,17.3,36.729,39.372,40.615,40.617,0,1,1.465908895,1.219289411,3.024345659
1,22102402,12,High,1.5,Precise,0,15,16,6,42.7,64.9,4.4,6,16,15,4.4,64.9,42.7,1,0.757,0,R,15,42.7,41.12,41.698,42.455,42.458,0,1,1.067707825,12.09802555,1.54344492
1,22102402,13,High,1.5,Vague,1,14,10,32,17.3,31.7,7.5,32,14,10,7.5,17.3,31.7,1,0.796,0,D,14,17.3,42.961,43.763,44.559,44.562,0,0,1.465908895,1.219289411,0.833999734
1,22102402,14,High,1.5,Precise,0,14,15,12,17.3,42.7,11.7,15,14,12,42.7,17.3,11.7,2,0.679,0,L,15,42.7,45.065,47.656,48.335,48.337,0,1,1.465908895,1.067707825,3.024345659
1,22102402,15,High,1.5,Precise,0,15,18,7,42.7,89.9,2.2,18,7,15,89.9,2.2,42.7,2,0.873,0,L,18,89.9,48.84,50.03,50.903,50.906,0,1,1.067707825,0.141421356,0.40824829
1,22102402,16,High,1.5,Precise,0,14,16,7,17.3,64.9,2.2,16,14,7,64.9,17.3,2.2,1,0.663,0.001,D,14,17.3,51.409,52.913,53.575,53.578,0,1,1.465908895,12.09802555,0.40824829
1,22102402,17,High,1.5,Vague,1,18,17,20,89.9,90,2.6,20,17,18,2.6,90,89.9,2,0.661,0.001,D,17,90,54.08,54.819,55.479,55.481,0,0,0.141421356,0.047140452,0.571547607
1,22102402,18,High,1.5,Vague,1,10,16,32,31.7,64.9,7.5,16,32,10,64.9,7.5,31.7,3,0.562,0.001,D,32,7.5,55.984,58.501,59.064,59.066,0,0,1.219289411,12.09802555,0.833999734
1,22102402,19,High,1.5,Precise,0,16,17,9,64.9,90,6.4,17,9,16,90,6.4,64.9,2,0.564,0,L,17,90,59.568,61.579,62.143,62.146,0,1,12.09802555,0.047140452,2.407396011
1,22102402,20,High,1.5,Vague,1,10,18,22,31.7,89.9,4,18,22,10,89.9,4,31.7,2,0.761,0,L,18,89.9,62.649,64.942,65.703,65.706,0,0,1.219289411,0.141421356,2.02155056
1,22102402,21,High,1.5,Precise,0,14,15,6,17.3,42.7,4.4,15,6,14,42.7,4.4,17.3,2,0.978,0.001,L,15,42.7,66.208,68.645,69.623,69.626,0,1,1.465908895,1.067707825,1.54344492
1,22102402,22,High,1.5,Precise,0,10,17,8,31.7,90,6.6,10,17,8,31.7,90,6.6,2,0.589,0.001,D,17,90,70.129,71.171,71.759,71.762,0,1,1.219289411,0.047140452,2.662079388
1,22102402,23,High,1.5,Precise,0,14,10,13,17.3,31.7,2.4,10,14,13,31.7,17.3,2.4,1,0.959,0,D,14,17.3,72.266,74.448,75.407,75.41,0,1,1.465908895,1.219289411,0.865383666
1,22102402,24,High,1.5,Precise,0,10,18,13,31.7,89.9,2.4,10,18,13,31.7,89.9,2.4,2,1.011,0,D,18,89.9,75.913,77.164,78.175,78.178,0,1,1.219289411,0.141421356,0.865383666
1,22102402,25,High,1.5,Vague,1,14,15,22,17.3,42.7,4,14,22,15,17.3,4,42.7,2,0.861,0,R,15,42.7,78.681,79.37,80.231,80.234,0,0,1.465908895,1.067707825,2.02155056
1,22102402,26,High,1.5,Precise,0,10,18,8,31.7,89.9,6.6,18,8,10,89.9,6.6,31.7,2,0.714,0,L,18,89.9,80.737,82.029,82.743,82.745,0,1,1.219289411,0.141421356,2.662079388
1,22102402,27,High,1.5,Vague,1,14,18,22,17.3,89.9,4,18,14,22,89.9,17.3,4,2,0.555,0,L,18,89.9,83.249,84.06,84.615,84.618,0,0,1.465908895,0.141421356,2.02155056
1,22102402,28,High,1.5,Vague,1,18,17,23,89.9,90,2.3,23,17,18,2.3,90,89.9,1,0.685,0.001,R,18,89.9,85.12,85.987,86.671,86.674,0,0,0.141421356,0.047140452,0.899382504
1,22102402,29,High,1.5,Vague,1,14,18,27,17.3,89.9,6.4,18,14,27,89.9,17.3,6.4,2,0.797,0,L,18,89.9,87.177,88.978,89.775,89.778,0,0,1.465908895,0.141421356,0.804155872
1,22102402,30,High,1.5,Vague,1,14,16,22,17.3,64.9,4,14,22,16,17.3,4,64.9,1,0.896,0,L,14,17.3,90.28,93.24,94.135,94.138,0,0,1.465908895,12.09802555,2.02155056
1,22102402,31,High,1.5,Vague,1,14,16,36,17.3,64.9,9.3,16,14,36,64.9,17.3,9.3,1,1.03,0,D,14,17.3,94.64,95.961,96.991,96.994,0,0,1.465908895,12.09802555,1.020892855
1,22102402,32,High,1.5,Vague,1,16,17,32,64.9,90,7.5,32,17,16,7.5,90,64.9,2,0.746,0,D,17,90,97.496,100.141,100.887,100.89,0,0,12.09802555,0.047140452,0.833999734
1,22102402,33,High,1.5,Precise,0,15,16,8,42.7,64.9,6.6,16,8,15,64.9,6.6,42.7,1,1.092,0,R,15,42.7,101.392,102.931,104.023,104.026,0,1,1.067707825,12.09802555,2.662079388
1,22102402,34,High,1.5,Vague,1,10,15,23,31.7,42.7,2.3,15,23,10,42.7,2.3,31.7,2,0.674,0.001,L,15,42.7,104.529,106.982,107.655,107.658,0,0,1.219289411,1.067707825,0.899382504
1,22102402,35,High,1.5,Vague,1,14,18,32,17.3,89.9,7.5,32,18,14,7.5,89.9,17.3,1,0.942,0.001,R,14,17.3,108.161,109.657,110.599,110.602,0,0,1.465908895,0.141421356,0.833999734
1,22102402,36,High,1.5,Vague,1,15,17,20,42.7,90,2.6,15,17,20,42.7,90,2.6,2,0.729,0,D,17,90,111.104,113.47,114.199,114.202,0,0,1.067707825,0.047140452,0.571547607
1,22102402,37,High,1.5,Vague,1,14,15,27,17.3,42.7,6.4,14,27,15,17.3,6.4,42.7,2,0.976,0,R,15,42.7,114.704,117.655,118.631,118.634,0,0,1.465908895,1.067707825,0.804155872
1,22102402,38,High,1.5,Precise,0,15,16,12,42.7,64.9,11.7,16,15,12,64.9,42.7,11.7,1,0.853,0.001,D,15,42.7,119.136,120.266,121.119,121.122,0,1,1.067707825,12.09802555,3.024345659
1,22102402,39,High,1.5,Precise,0,10,17,6,31.7,90,4.4,10,17,6,31.7,90,4.4,2,0.643,0.001,D,17,90,121.624,122.493,123.136,123.138,0,1,1.219289411,0.047140452,1.54344492
1,22102402,40,High,1.5,Precise,0,10,16,9,31.7,64.9,6.4,9,10,16,6.4,31.7,64.9,1,1.089,0,D,10,31.7,123.641,124.183,125.271,125.274,0,1,1.219289411,12.09802555,2.407396011
1,22102402,41,High,1.5,Precise,0,14,18,9,17.3,89.9,6.4,9,14,18,6.4,17.3,89.9,2,0.982,0,R,18,89.9,125.777,128.129,129.111,129.114,0,1,1.465908895,0.141421356,2.407396011
1,22102402,42,High,1.5,Vague,1,15,17,36,42.7,90,9.3,36,17,15,9.3,90,42.7,2,0.668,0,D,17,90,129.617,131.459,132.128,132.13,0,0,1.067707825,0.047140452,1.020892855
1,22102402,43,High,1.5,Vague,1,14,18,36,17.3,89.9,9.3,36,14,18,9.3,17.3,89.9,2,0.878,0.001,R,18,89.9,132.633,135.034,135.912,135.914,0,0,1.465908895,0.141421356,1.020892855
1,22102402,44,High,1.5,Precise,0,15,18,6,42.7,89.9,4.4,18,15,6,89.9,42.7,4.4,2,0.681,0,L,18,89.9,136.416,138.423,139.103,139.106,0,1,1.067707825,0.141421356,1.54344492
1,22102402,45,High,1.5,Vague,1,14,16,32,17.3,64.9,7.5,14,32,16,17.3,7.5,64.9,1,1.212,0,L,14,17.3,139.608,141.643,142.855,142.858,0,0,1.465908895,12.09802555,0.833999734
1,22102402,46,High,1.5,Vague,1,15,18,20,42.7,89.9,2.6,15,18,20,42.7,89.9,2.6,1,0.864,0,L,15,42.7,143.361,144.056,144.919,144.921,0,0,1.067707825,0.141421356,0.571547607
1,22102402,47,High,1.5,Precise,0,14,18,7,17.3,89.9,2.2,14,18,7,17.3,89.9,2.2,2,0.769,0,D,18,89.9,145.424,146.95,147.719,147.722,0,1,1.465908895,0.141421356,0.40824829
1,22102402,48,High,1.5,Vague,1,14,16,20,17.3,64.9,2.6,20,14,16,2.6,17.3,64.9,1,0.795,0.001,D,14,17.3,148.224,148.916,149.712,149.714,0,0,1.465908895,12.09802555,0.571547607
1,22102402,49,High,1.5,Precise,0,10,18,6,31.7,89.9,4.4,10,6,18,31.7,4.4,89.9,2,1.021,0,R,18,89.9,150.216,153.138,154.159,154.161,0,1,1.219289411,0.141421356,1.54344492
1,22102402,50,High,1.5,Vague,1,15,18,22,42.7,89.9,4,18,15,22,89.9,42.7,4,2,0.861,0,L,18,89.9,154.664,156.09,156.951,156.954,0,0,1.067707825,0.141421356,2.02155056
1,22102402,51,High,1.5,Precise,0,16,17,6,64.9,90,4.4,17,6,16,90,4.4,64.9,2,0.611,0.001,L,17,90,157.456,159.941,160.551,160.554,0,1,12.09802555,0.047140452,1.54344492
1,22102402,52,High,1.5,Vague,1,15,17,22,42.7,90,4,22,15,17,4,42.7,90,2,0.617,0,R,17,90,161.056,163.19,163.807,163.81,0,0,1.067707825,0.047140452,2.02155056
1,22102402,53,High,1.5,Precise,0,15,16,7,42.7,64.9,2.2,7,16,15,2.2,64.9,42.7,1,0.828,0.001,R,15,42.7,164.312,167.02,167.847,167.85,0,1,1.067707825,12.09802555,0.40824829
1,22102402,54,High,1.5,Precise,0,14,17,8,17.3,90,6.6,14,17,8,17.3,90,6.6,2,0.592,0.001,D,17,90,168.354,170.071,170.664,170.666,0,1,1.465908895,0.047140452,2.662079388
1,22102402,55,High,1.5,Vague,1,16,17,20,64.9,90,2.6,20,17,16,2.6,90,64.9,2,0.506,0,D,17,90,171.169,174.133,174.639,174.642,0,0,12.09802555,0.047140452,0.571547607
1,22102402,56,High,1.5,Precise,0,14,18,6,17.3,89.9,4.4,6,14,18,4.4,17.3,89.9,2,0.771,0,R,18,89.9,175.145,175.692,176.463,176.466,0,1,1.465908895,0.141421356,1.54344492
1,22102402,57,High,1.5,Precise,0,14,16,13,17.3,64.9,2.4,14,13,16,17.3,2.4,64.9,2,1.237,0,R,16,64.9,176.968,179.066,180.303,180.306,0,1,1.465908895,12.09802555,0.865383666
1,22102402,58,High,1.5,Precise,0,10,18,7,31.7,89.9,2.2,7,18,10,2.2,89.9,31.7,1,0.903,0.001,R,10,31.7,180.809,183.729,184.632,184.634,0,1,1.219289411,0.141421356,0.40824829
1,22102402,59,High,1.5,Vague,1,10,18,27,31.7,89.9,6.4,27,10,18,6.4,31.7,89.9,2,0.522,0,R,18,89.9,185.136,186.742,187.263,187.266,0,0,1.219289411,0.141421356,0.804155872
1,22102402,60,High,1.5,Vague,1,16,17,36,64.9,90,9.3,16,17,36,64.9,90,9.3,2,0.578,0,D,17,90,187.768,189.646,190.224,190.226,0,0,12.09802555,0.047140452,1.020892855
1,22102402,61,High,1.5,Precise,0,15,17,6,42.7,90,4.4,6,15,17,4.4,42.7,90,2,0.712,0,R,17,90,201.208,203.879,204.591,204.594,0,1,1.067707825,0.047140452,1.54344492
1,22102402,62,High,1.5,Vague,1,14,10,20,17.3,31.7,2.6,14,20,10,17.3,2.6,31.7,1,0.699,0,L,14,17.3,205.097,206.021,206.719,206.722,0,0,1.465908895,1.219289411,0.571547607
1,22102402,63,High,1.5,Vague,1,14,17,22,17.3,90,4,14,22,17,17.3,4,90,2,0.631,0.001,R,17,90,207.224,209.368,210,210.002,0,0,1.465908895,0.047140452,2.02155056
1,22102402,64,High,1.5,Vague,1,10,18,20,31.7,89.9,2.6,10,20,18,31.7,2.6,89.9,2,0.735,0.001,R,18,89.9,210.505,211.48,212.216,212.218,0,0,1.219289411,0.141421356,0.571547607
1,22102402,65,High,1.5,Precise,0,14,15,9,17.3,42.7,6.4,15,14,9,42.7,17.3,6.4,2,0.881,0.001,L,15,42.7,212.72,213.63,214.512,214.514,0,1,1.465908895,1.067707825,2.407396011
1,22102402,66,High,1.5,Precise,0,10,16,7,31.7,64.9,2.2,7,16,10,2.2,64.9,31.7,1,0.932,0,R,10,31.7,215.017,215.803,216.735,216.738,0,1,1.219289411,12.09802555,0.40824829
1,22102402,67,High,1.5,Precise,0,10,17,13,31.7,90,2.4,13,10,17,2.4,31.7,90,2,0.631,0.001,R,17,90,217.24,220.064,220.696,220.698,0,1,1.219289411,0.047140452,0.865383666
1,22102402,68,High,1.5,Vague,1,15,18,23,42.7,89.9,2.3,23,15,18,2.3,42.7,89.9,2,0.792,0,R,18,89.9,221.2,221.895,222.688,222.69,0,0,1.067707825,0.141421356,0.899382504
1,22102402,69,High,1.5,Vague,1,16,17,27,64.9,90,6.4,16,17,27,64.9,90,6.4,2,0.64,0.001,D,17,90,223.193,223.824,224.464,224.466,0,0,12.09802555,0.047140452,0.804155872
1,22102402,70,High,1.5,Vague,1,18,17,27,89.9,90,6.4,18,17,27,89.9,90,6.4,2,0.522,0,D,17,90,224.969,225.725,226.247,226.25,0,0,0.141421356,0.047140452,0.804155872
1,22102402,71,High,1.5,Precise,0,16,18,13,64.9,89.9,2.4,13,16,18,2.4,64.9,89.9,2,0.692,0,R,18,89.9,226.752,229.076,229.767,229.77,0,1,12.09802555,0.141421356,0.865383666
1,22102402,72,High,1.5,Precise,0,16,18,8,64.9,89.9,6.6,8,18,16,6.6,89.9,64.9,2,0.748,0,D,18,89.9,230.272,231.059,231.808,231.81,0,1,12.09802555,0.141421356,2.662079388
1,22102402,73,High,1.5,Vague,1,10,18,36,31.7,89.9,9.3,36,18,10,9.3,89.9,31.7,2,0.486,0.001,D,18,89.9,232.313,234.914,235.4,235.402,0,0,1.219289411,0.141421356,1.020892855
1,22102402,74,High,1.5,Vague,1,15,16,32,42.7,64.9,7.5,15,16,32,42.7,64.9,7.5,3,0.704,0.001,R,32,7.5,235.905,238.32,239.024,239.026,0,0,1.067707825,12.09802555,0.833999734
1,22102402,75,High,1.5,Precise,0,14,16,12,17.3,64.9,11.7,14,12,16,17.3,11.7,64.9,1,1.133,0,L,14,17.3,239.528,242.514,243.647,243.65,0,1,1.465908895,12.09802555,3.024345659
1,22102402,76,High,1.5,Precise,0,10,18,12,31.7,89.9,11.7,18,12,10,89.9,11.7,31.7,2,0.613,0.001,L,18,89.9,244.153,246.866,247.48,247.482,0,1,1.219289411,0.141421356,3.024345659
1,22102402,78,High,1.5,Vague,1,10,16,36,31.7,64.9,9.3,36,16,10,9.3,64.9,31.7,2,1.437,0,D,16,64.9,253.604,254.483,255.92,255.923,0,0,1.219289411,12.09802555,1.020892855
1,22102402,79,High,1.5,Vague,1,15,17,23,42.7,90,2.3,15,23,17,42.7,2.3,90,2,0.576,0,R,17,90,256.427,258.896,259.471,259.474,0,0,1.067707825,0.047140452,0.899382504
1,22102402,80,High,1.5,Vague,1,15,18,36,42.7,89.9,9.3,15,18,36,42.7,89.9,9.3,1,0.929,0,L,15,42.7,259.977,261.942,262.871,262.874,0,0,1.067707825,0.141421356,1.020892855
1,22102402,81,High,1.5,Precise,0,18,17,12,89.9,90,11.7,17,12,18,90,11.7,89.9,2,0.597,0,L,17,90,263.377,266.002,266.599,266.602,0,1,0.141421356,0.047140452,3.024345659
1,22102402,82,High,1.5,Vague,1,15,16,36,42.7,64.9,9.3,16,36,15,64.9,9.3,42.7,1,0.73,0,R,15,42.7,267.105,268.437,269.167,269.17,0,0,1.067707825,12.09802555,1.020892855
1,22102402,83,High,1.5,Vague,1,14,17,23,17.3,90,2.3,23,17,14,2.3,90,17.3,2,0.746,0,D,17,90,269.673,272.054,272.799,272.802,0,0,1.465908895,0.047140452,0.899382504
1,22102402,84,High,1.5,Vague,1,15,16,20,42.7,64.9,2.6,15,16,20,42.7,64.9,2.6,1,0.683,0.001,L,15,42.7,273.305,276.293,276.976,276.978,0,0,1.067707825,12.09802555,0.571547607
1,22102402,85,High,1.5,Precise,0,14,17,13,17.3,90,2.4,13,14,17,2.4,17.3,90,2,0.529,0.001,R,17,90,277.481,279.374,279.904,279.906,0,1,1.465908895,0.047140452,0.865383666
1,22102402,86,High,1.5,Precise,0,15,17,13,42.7,90,2.4,13,17,15,2.4,90,42.7,2,0.535,0.001,D,17,90,280.408,281.529,282.064,282.066,0,1,1.067707825,0.047140452,0.865383666
1,22102402,87,High,1.5,Vague,1,14,17,27,17.3,90,6.4,17,27,14,90,6.4,17.3,2,0.48,0,L,17,90,282.569,283.544,284.023,284.026,0,0,1.465908895,0.047140452,0.804155872
1,22102402,88,High,1.5,Precise,0,14,16,6,17.3,64.9,4.4,6,14,16,4.4,17.3,64.9,1,0.725,0,D,14,17.3,284.529,287.41,288.135,288.138,0,1,1.465908895,12.09802555,1.54344492
1,22102402,89,High,1.5,Vague,1,14,17,32,17.3,90,7.5,17,32,14,90,7.5,17.3,2,0.548,0,L,17,90,288.641,290.763,291.311,291.314,0,0,1.465908895,0.047140452,0.833999734
1,22102402,90,High,1.5,Vague,1,14,15,23,17.3,42.7,2.3,23,14,15,2.3,17.3,42.7,2,0.695,0.001,R,15,42.7,291.816,292.896,293.592,293.594,0,0,1.465908895,1.067707825,0.899382504
1,22102402,91,High,1.5,Precise,0,18,17,9,89.9,90,6.4,17,18,9,90,89.9,6.4,2,0.527,0,L,17,90,294.097,296.809,297.336,297.338,0,1,0.141421356,0.047140452,2.407396011
1,22102402,92,High,1.5,Vague,1,10,15,20,31.7,42.7,2.6,10,15,20,31.7,42.7,2.6,2,0.61,0,D,15,42.7,297.842,299.125,299.736,299.738,0,0,1.219289411,1.067707825,0.571547607
1,22102402,93,High,1.5,Vague,1,10,18,32,31.7,89.9,7.5,18,10,32,89.9,31.7,7.5,2,0.609,0,L,18,89.9,300.241,302.439,303.048,303.05,0,0,1.219289411,0.141421356,0.833999734
1,22102402,94,High,1.5,Vague,1,10,17,22,31.7,90,4,22,17,10,4,90,31.7,2,0.507,0,D,17,90,303.552,305.669,306.176,306.178,0,0,1.219289411,0.047140452,2.02155056
1,22102402,95,High,1.5,Vague,1,10,17,36,31.7,90,9.3,36,17,10,9.3,90,31.7,2,0.486,0.001,D,17,90,306.681,309.17,309.656,309.658,0,0,1.219289411,0.047140452,1.020892855
1,22102402,96,High,1.5,Precise,0,14,16,9,17.3,64.9,6.4,16,9,14,64.9,6.4,17.3,1,0.972,0.001,R,14,17.3,310.161,311.42,312.392,312.394,0,1,1.465908895,12.09802555,2.407396011
1,22102402,97,High,1.5,Precise,0,16,17,12,64.9,90,11.7,16,12,17,64.9,11.7,90,2,0.578,0.001,R,17,90,312.896,314.87,315.448,315.45,0,1,12.09802555,0.047140452,3.024345659
1,22102402,98,High,1.5,Vague,1,10,17,20,31.7,90,2.6,20,10,17,2.6,31.7,90,2,0.536,0,R,17,90,315.953,318.384,318.919,318.922,0,0,1.219289411,0.047140452,0.571547607
1,22102402,99,High,1.5,Precise,0,15,18,9,42.7,89.9,6.4,15,18,9,42.7,89.9,6.4,1,0.839,0,L,15,42.7,319.425,320.112,320.952,320.954,0,1,1.067707825,0.141421356,2.407396011
1,22102402,100,High,1.5,Vague,1,16,18,32,64.9,89.9,7.5,18,16,32,89.9,64.9,7.5,2,0.663,0,L,18,89.9,321.458,324.001,324.664,324.666,0,0,12.09802555,0.141421356,0.833999734
1,22102402,101,High,1.5,Vague,1,10,18,23,31.7,89.9,2.3,10,18,23,31.7,89.9,2.3,2,0.526,0.001,D,18,89.9,325.17,327.369,327.896,327.898,0,0,1.219289411,0.141421356,0.899382504
1,22102402,102,High,1.5,Precise,0,15,16,9,42.7,64.9,6.4,16,9,15,64.9,6.4,42.7,1,1.155,0,R,15,42.7,328.401,329.621,330.776,330.778,0,1,1.067707825,12.09802555,2.407396011
1,22102402,103,High,1.5,Precise,0,14,18,8,17.3,89.9,6.6,8,18,14,6.6,89.9,17.3,1,0.656,0,R,14,17.3,331.28,334.055,334.711,334.714,0,1,1.465908895,0.141421356,2.662079388
1,22102402,104,High,1.5,Vague,1,15,17,32,42.7,90,7.5,17,15,32,90,42.7,7.5,2,0.572,0,L,17,90,335.217,337.58,338.151,338.154,0,0,1.067707825,0.047140452,0.833999734
1,22102402,105,High,1.5,Precise,0,15,18,12,42.7,89.9,11.7,18,12,15,89.9,11.7,42.7,2,0.509,0,L,18,89.9,338.657,340.17,340.679,340.682,0,1,1.067707825,0.141421356,3.024345659
1,22102402,106,High,1.5,Precise,0,14,17,7,17.3,90,2.2,14,7,17,17.3,2.2,90,2,0.625,0.001,R,17,90,341.184,342.03,342.656,342.658,0,1,1.465908895,0.047140452,0.40824829
1,22102402,107,High,1.5,Vague,1,16,18,22,64.9,89.9,4,18,16,22,89.9,64.9,4,2,0.713,0,L,18,89.9,343.161,345.519,346.232,346.234,0,0,12.09802555,0.141421356,2.02155056
1,22102402,108,High,1.5,Precise,0,15,18,8,42.7,89.9,6.6,18,15,8,89.9,42.7,6.6,2,0.603,0.001,L,18,89.9,346.737,348.916,349.52,349.523,0,1,1.067707825,0.141421356,2.662079388
1,22102402,109,High,1.5,Precise,0,10,15,12,31.7,42.7,11.7,10,12,15,31.7,11.7,42.7,2,0.759,0.001,R,15,42.7,350.026,351.681,352.44,352.442,0,1,1.219289411,1.067707825,3.024345659
1,22102402,110,High,1.5,Precise,0,10,17,9,31.7,90,6.4,10,9,17,31.7,6.4,90,2,0.546,0.001,R,17,90,352.946,355.894,356.44,356.442,0,1,1.219289411,0.047140452,2.407396011
1,22102402,111,High,1.5,Vague,1,16,17,22,64.9,90,4,16,22,17,64.9,4,90,2,0.554,0.001,R,17,90,356.945,359.59,360.144,360.146,0,0,12.09802555,0.047140452,2.02155056
1,22102402,112,High,1.5,Precise,0,14,10,7,17.3,31.7,2.2,7,14,10,2.2,17.3,31.7,1,0.987,0,D,14,17.3,360.649,361.245,362.232,362.234,0,1,1.465908895,1.219289411,0.40824829
1,22102402,113,High,1.5,Precise,0,14,16,8,17.3,64.9,6.6,14,8,16,17.3,6.6,64.9,1,0.676,0.001,L,14,17.3,362.737,365.379,366.056,366.058,0,1,1.465908895,12.09802555,2.662079388
1,22102402,114,High,1.5,Vague,1,18,17,22,89.9,90,4,22,17,18,4,90,89.9,2,0.699,0.001,D,17,90,366.561,367.389,368.088,368.09,0,0,0.141421356,0.047140452,2.02155056
1,22102402,115,High,1.5,Precise,0,10,15,6,31.7,42.7,4.4,15,10,6,42.7,31.7,4.4,2,0.833,0,L,15,42.7,368.593,370.174,371.007,371.01,0,1,1.219289411,1.067707825,1.54344492
1,22102402,116,High,1.5,Precise,0,10,15,8,31.7,42.7,6.6,15,10,8,42.7,31.7,6.6,2,0.606,0.001,L,15,42.7,371.513,372.273,372.88,372.882,0,1,1.219289411,1.067707825,2.662079388
1,22102402,117,High,1.5,Vague,1,14,18,23,17.3,89.9,2.3,23,18,14,2.3,89.9,17.3,2,0.619,0.001,D,18,89.9,373.385,374.325,374.944,374.946,0,0,1.465908895,0.141421356,0.899382504
1,22102402,118,High,1.5,Precise,0,10,17,12,31.7,90,11.7,12,17,10,11.7,90,31.7,2,0.542,0,D,17,90,375.449,377.394,377.936,377.938,0,1,1.219289411,0.047140452,3.024345659
1,22102402,119,High,1.5,Vague,1,14,17,20,17.3,90,2.6,14,17,20,17.3,90,2.6,2,0.472,0.001,D,17,90,378.441,380.384,380.856,380.858,0,0,1.465908895,0.047140452,0.571547607
1,22102402,120,High,1.5,Vague,1,10,16,22,31.7,64.9,4,22,16,10,4,64.9,31.7,2,1.347,0,D,16,64.9,381.361,381.965,383.312,383.314,0,0,1.219289411,12.09802555,2.02155056
1,22102402,121,High,1.5,Precise,0,16,17,13,64.9,90,2.4,17,13,16,90,2.4,64.9,2,0.551,0.001,L,17,90,395.173,397.872,398.424,398.426,0,1,12.09802555,0.047140452,0.865383666
1,22102402,122,High,1.5,Precise,0,10,16,13,31.7,64.9,2.4,10,16,13,31.7,64.9,2.4,2,1.04,0.001,D,16,64.9,398.928,400.096,401.136,401.138,0,1,1.219289411,12.09802555,0.865383666
1,22102402,123,High,1.5,Vague,1,10,15,32,31.7,42.7,7.5,32,10,15,7.5,31.7,42.7,2,1.191,0,R,15,42.7,401.641,402.344,403.535,403.538,0,0,1.219289411,1.067707825,0.833999734
1,22102402,124,High,1.5,Precise,0,16,18,7,64.9,89.9,2.2,18,16,7,89.9,64.9,2.2,2,0.647,0.001,L,18,89.9,404.042,404.873,405.52,405.522,0,1,12.09802555,0.141421356,0.40824829
1,22102402,125,High,1.5,Precise,0,10,18,9,31.7,89.9,6.4,18,10,9,89.9,31.7,6.4,2,0.58,0,L,18,89.9,406.026,408.956,409.536,409.538,0,1,1.219289411,0.141421356,2.407396011
1,22102402,126,High,1.5,Precise,0,15,16,13,42.7,64.9,2.4,16,15,13,64.9,42.7,2.4,1,0.996,0.001,D,15,42.7,410.041,410.772,411.768,411.77,0,1,1.067707825,12.09802555,0.865383666
1,22102402,127,High,1.5,Vague,1,16,17,23,64.9,90,2.3,17,23,16,90,2.3,64.9,2,0.528,0.001,L,17,90,412.272,413.391,413.92,413.922,0,0,12.09802555,0.047140452,0.899382504
1,22102402,128,High,1.5,Precise,0,15,17,9,42.7,90,6.4,9,17,15,6.4,90,42.7,2,0.578,0,D,17,90,414.425,415.454,416.031,416.034,0,1,1.067707825,0.047140452,2.407396011
1,22102402,129,High,1.5,Vague,1,14,17,36,17.3,90,9.3,14,36,17,17.3,9.3,90,2,0.587,0.001,R,17,90,416.536,418.948,419.536,419.538,0,0,1.465908895,0.047140452,1.020892855
1,22102402,130,High,1.5,Precise,0,10,16,6,31.7,64.9,4.4,6,10,16,4.4,31.7,64.9,2,0.921,0,R,16,64.9,420.042,422.71,423.631,423.634,0,1,1.219289411,12.09802555,1.54344492
1,22102402,131,High,1.5,Vague,1,14,10,23,17.3,31.7,2.3,14,23,10,17.3,2.3,31.7,1,0.713,0.001,L,14,17.3,424.136,426.127,426.84,426.842,0,0,1.465908895,1.219289411,0.899382504
1,22102402,132,High,1.5,Precise,0,16,17,7,64.9,90,2.2,17,7,16,90,2.2,64.9,2,0.575,0,L,17,90,427.345,430.144,430.72,430.722,0,1,12.09802555,0.047140452,0.40824829
1,22102402,133,High,1.5,Precise,0,10,15,9,31.7,42.7,6.4,10,9,15,31.7,6.4,42.7,2,0.629,0,R,15,42.7,431.225,432.883,433.512,433.514,0,1,1.219289411,1.067707825,2.407396011
1,22102402,134,High,1.5,Vague,1,14,10,27,17.3,31.7,6.4,27,10,14,6.4,31.7,17.3,1,0.69,0,R,14,17.3,434.017,435.293,435.983,435.986,0,0,1.465908895,1.219289411,0.804155872
1,22102402,135,High,1.5,Precise,0,14,18,13,17.3,89.9,2.4,18,13,14,89.9,2.4,17.3,2,0.702,0,L,18,89.9,436.489,437.61,438.311,438.314,0,1,1.465908895,0.141421356,0.865383666
1,22102402,136,High,1.5,Precise,0,14,17,12,17.3,90,11.7,12,17,14,11.7,90,17.3,2,0.601,0.001,D,17,90,438.816,441.583,442.184,442.186,0,1,1.465908895,0.047140452,3.024345659
1,22102402,137,High,1.5,Vague,1,10,16,20,31.7,64.9,2.6,10,16,20,31.7,64.9,2.6,2,0.997,0.001,D,16,64.9,442.689,443.187,444.184,444.186,0,0,1.219289411,12.09802555,0.571547607
1,22102402,138,High,1.5,Vague,1,14,15,36,17.3,42.7,9.3,36,15,14,9.3,42.7,17.3,2,1.213,0.001,D,15,42.7,444.689,447.371,448.584,448.587,0,0,1.465908895,1.067707825,1.020892855
1,22102402,139,High,1.5,Vague,1,16,18,23,64.9,89.9,2.3,23,16,18,2.3,64.9,89.9,2,0.867,0.001,R,18,89.9,449.09,450.565,451.432,451.434,0,0,12.09802555,0.141421356,0.899382504
1,22102402,140,High,1.5,Vague,1,15,16,27,42.7,64.9,6.4,27,16,15,6.4,64.9,42.7,1,0.649,0,R,15,42.7,451.937,454.47,455.119,455.122,0,0,1.067707825,12.09802555,0.804155872
1,22102402,141,High,1.5,Vague,1,10,17,32,31.7,90,7.5,10,32,17,31.7,7.5,90,2,0.62,0,R,17,90,455.624,457.755,458.376,458.378,0,0,1.219289411,0.047140452,0.833999734
1,22102402,142,High,1.5,Precise,0,10,17,7,31.7,90,2.2,7,17,10,2.2,90,31.7,2,0.581,0.001,D,17,90,458.881,460.467,461.048,461.05,0,1,1.219289411,0.047140452,0.40824829
1,22102402,143,High,1.5,Vague,1,16,18,27,64.9,89.9,6.4,27,16,18,6.4,64.9,89.9,2,0.709,0,R,18,89.9,461.554,463.826,464.536,464.538,0,0,12.09802555,0.141421356,0.804155872
1,22102402,144,High,1.5,Precise,0,14,18,12,17.3,89.9,11.7,18,12,14,89.9,11.7,17.3,2,0.558,0.001,L,18,89.9,465.041,466.306,466.864,466.866,0,1,1.465908895,0.141421356,3.024345659
1,22102402,145,High,1.5,Vague,1,16,18,36,64.9,89.9,9.3,18,16,36,89.9,64.9,9.3,2,0.568,0.001,L,18,89.9,467.369,470.2,470.768,470.77,0,0,12.09802555,0.141421356,1.020892855
1,22102402,146,High,1.5,Precise,0,16,18,9,64.9,89.9,6.4,9,18,16,6.4,89.9,64.9,2,1.016,0,D,18,89.9,471.273,474.032,475.048,475.05,0,1,12.09802555,0.141421356,2.407396011
1,22102402,147,High,1.5,Vague,1,15,16,22,42.7,64.9,4,15,16,22,42.7,64.9,4,1,1.373,0.001,L,15,42.7,475.554,477.083,478.456,478.459,0,0,1.067707825,12.09802555,2.02155056
1,22102402,148,High,1.5,Precise,0,14,17,6,17.3,90,4.4,14,6,17,17.3,4.4,90,2,0.504,0,R,17,90,478.962,480.368,480.872,480.874,0,1,1.465908895,0.047140452,1.54344492
1,22102402,149,High,1.5,Vague,1,15,18,32,42.7,89.9,7.5,18,32,15,89.9,7.5,42.7,2,0.69,0.001,L,18,89.9,481.377,484.102,484.792,484.794,0,0,1.067707825,0.141421356,0.833999734
1,22102402,150,High,1.5,Precise,0,15,17,12,42.7,90,11.7,12,17,15,11.7,90,42.7,2,0.643,0.001,D,17,90,485.297,486.477,487.12,487.123,0,1,1.067707825,0.047140452,3.024345659
1,22102402,151,High,1.5,Vague,1,16,18,20,64.9,89.9,2.6,16,18,20,64.9,89.9,2.6,2,0.856,0,D,18,89.9,487.625,488.216,489.072,489.074,0,0,12.09802555,0.141421356,0.571547607
1,22102402,152,High,1.5,Vague,1,18,17,32,89.9,90,7.5,32,17,18,7.5,90,89.9,2,0.541,0.001,D,17,90,489.577,491.683,492.224,492.226,0,0,0.141421356,0.047140452,0.833999734
1,22102402,153,High,1.5,Precise,0,15,17,8,42.7,90,6.6,8,15,17,6.6,42.7,90,2,0.586,0,R,17,90,492.728,494.942,495.528,495.53,0,1,1.067707825,0.047140452,2.662079388
1,22102402,154,High,1.5,Precise,0,14,17,9,17.3,90,6.4,9,14,17,6.4,17.3,90,2,0.515,0,R,17,90,496.032,496.781,497.296,497.298,0,1,1.465908895,0.047140452,2.407396011
1,22102402,155,High,1.5,Vague,1,14,15,32,17.3,42.7,7.5,14,32,15,17.3,7.5,42.7,1,0.988,0,L,14,17.3,497.8,500.444,501.432,501.434,0,0,1.465908895,1.067707825,0.833999734
1,22102402,156,High,1.5,Vague,1,14,16,27,17.3,64.9,6.4,27,16,14,6.4,64.9,17.3,1,0.541,0,R,14,17.3,501.937,503.635,504.176,504.178,0,0,1.465908895,12.09802555,0.804155872
1,22102402,157,High,1.5,Precise,0,14,15,8,17.3,42.7,6.6,8,14,15,6.6,17.3,42.7,2,0.538,0,R,15,42.7,504.68,505.365,505.904,505.906,0,1,1.465908895,1.067707825,2.662079388
1,22102402,158,High,1.5,Vague,1,15,18,27,42.7,89.9,6.4,27,15,18,6.4,42.7,89.9,2,1.273,0.001,R,18,89.9,506.408,507.407,508.68,508.682,0,0,1.067707825,0.141421356,0.804155872
1,22102402,159,High,1.5,Vague,1,15,17,27,42.7,90,6.4,17,15,27,90,42.7,6.4,2,0.604,0,L,17,90,509.185,511.452,512.056,512.058,0,0,1.067707825,0.047140452,0.804155872
1,22102402,160,High,1.5,Vague,1,10,16,27,31.7,64.9,6.4,10,27,16,31.7,6.4,64.9,2,1.099,0,R,16,64.9,512.562,514.805,515.904,515.906,0,0,1.219289411,12.09802555,0.804155872
1,22102402,161,High,1.5,Precise,0,10,15,13,31.7,42.7,2.4,15,10,13,42.7,31.7,2.4,2,0.651,0,L,15,42.7,516.409,517.205,517.856,517.858,0,1,1.219289411,1.067707825,0.865383666
1,22102402,162,High,1.5,Precise,0,16,17,8,64.9,90,6.6,17,16,8,90,64.9,6.6,2,1.033,0,L,17,90,518.36,518.967,520,520.002,0,1,12.09802555,0.047140452,2.662079388
1,22102402,163,High,1.5,Vague,1,10,15,36,31.7,42.7,9.3,15,10,36,42.7,31.7,9.3,2,0.813,0,L,15,42.7,520.505,521.57,522.384,522.386,0,0,1.219289411,1.067707825,1.020892855
1,22102402,164,High,1.5,Vague,1,14,10,36,17.3,31.7,9.3,10,36,14,31.7,9.3,17.3,1,1.059,0.001,R,14,17.3,522.888,525.821,526.88,526.882,0,0,1.465908895,1.219289411,1.020892855
1,22102402,165,High,1.5,Vague,1,10,15,22,31.7,42.7,4,15,10,22,42.7,31.7,4,2,1.016,0.001,L,15,42.7,527.385,528.04,529.056,529.058,0,0,1.219289411,1.067707825,2.02155056
1,22102402,166,High,1.5,Precise,0,10,16,12,31.7,64.9,11.7,12,16,10,11.7,64.9,31.7,1,1.207,0.001,R,10,31.7,529.561,532.489,533.696,533.698,0,1,1.219289411,12.09802555,3.024345659
1,22102402,167,High,1.5,Precise,0,18,17,13,89.9,90,2.4,13,18,17,2.4,89.9,90,2,0.598,0.001,R,17,90,534.201,536.938,537.536,537.538,0,1,0.141421356,0.047140452,0.865383666
1,22102402,168,High,1.5,Vague,1,15,16,23,42.7,64.9,2.3,16,23,15,64.9,2.3,42.7,1,0.588,0,R,15,42.7,538.041,539.94,540.528,540.53,0,0,1.067707825,12.09802555,0.899382504
1,22102402,169,High,1.5,Precise,0,10,16,8,31.7,64.9,6.6,10,8,16,31.7,6.6,64.9,2,1.078,0,R,16,64.9,541.033,543.234,544.312,544.314,0,1,1.219289411,12.09802555,2.662079388
1,22102402,170,High,1.5,Precise,0,16,18,12,64.9,89.9,11.7,16,18,12,64.9,89.9,11.7,1,0.603,0,L,16,64.9,544.817,546.237,546.84,546.842,0,1,12.09802555,0.141421356,3.024345659
1,22102402,171,High,1.5,Precise,0,10,15,7,31.7,42.7,2.2,7,15,10,2.2,42.7,31.7,1,1.355,0,R,10,31.7,547.344,548.804,550.16,550.162,0,1,1.219289411,1.067707825,0.40824829
1,22102402,172,High,1.5,Vague,1,10,15,27,31.7,42.7,6.4,10,27,15,31.7,6.4,42.7,2,0.598,0,R,15,42.7,550.665,551.378,551.976,551.978,0,0,1.219289411,1.067707825,0.804155872
1,22102402,173,High,1.5,Vague,1,14,18,20,17.3,89.9,2.6,14,18,20,17.3,89.9,2.6,1,0.804,0,L,14,17.3,552.481,553.236,554.04,554.042,0,0,1.465908895,0.141421356,0.571547607
1,22102402,174,High,1.5,Vague,1,14,16,23,17.3,64.9,2.3,14,23,16,17.3,2.3,64.9,1,1.035,0,L,14,17.3,554.545,556.397,557.432,557.434,0,0,1.465908895,12.09802555,0.899382504
1,22102402,175,High,1.5,Precise,0,18,17,6,89.9,90,4.4,18,17,6,89.9,90,4.4,2,0.602,0,D,17,90,557.937,560.726,561.328,561.33,0,1,0.141421356,0.047140452,1.54344492
1,22102402,176,High,1.5,Precise,0,16,18,6,64.9,89.9,4.4,6,16,18,4.4,64.9,89.9,2,0.736,0,R,18,89.9,561.833,562.543,563.28,563.282,0,1,12.09802555,0.141421356,1.54344492
1,22102402,177,High,1.5,Precise,0,14,10,8,17.3,31.7,6.6,10,14,8,31.7,17.3,6.6,1,0.95,0.001,D,14,17.3,563.785,566.506,567.456,567.458,0,1,1.465908895,1.219289411,2.662079388
1,22102402,178,High,1.5,Vague,1,10,17,23,31.7,90,2.3,17,23,10,90,2.3,31.7,2,0.568,0,L,17,90,567.962,570.032,570.6,570.602,0,0,1.219289411,0.047140452,0.899382504
1,22102402,179,High,1.5,Precise,0,14,10,6,17.3,31.7,4.4,6,10,14,4.4,31.7,17.3,1,0.73,0,R,14,17.3,571.105,571.998,572.728,572.73,0,1,1.465908895,1.219289411,1.54344492
1,22102402,180,High,1.5,Precise,0,14,15,7,17.3,42.7,2.2,15,14,7,42.7,17.3,2.2,2,1.058,0,L,15,42.7,573.233,573.902,574.96,574.962,0,1,1.465908895,1.067707825,0.40824829
1,22102402,181,Low,10,Precise,0,15,16,3,42.7,64.9,2.4,16,15,3,64.9,42.7,2.4,1,1.964,0,D,15,42.7,595.367,598.1,600.064,600.066,0,1,1.067707825,12.09802555,0.294392029
1,22102402,182,Low,10,Vague,1,14,16,31,17.3,64.9,7.2,31,14,16,7.2,17.3,64.9,1,1.819,0,D,14,17.3,600.569,602.925,604.744,604.747,0,0,1.465908895,12.09802555,4.166799998
1,22102402,183,Low,10,Precise,0,14,16,4,17.3,64.9,4.6,4,14,16,4.6,17.3,64.9,2,1.654,0.001,R,16,64.9,605.249,607.898,609.552,609.555,0,1,1.465908895,12.09802555,1.626857912
1,22102402,184,Low,10,Precise,0,15,18,4,42.7,89.9,4.6,18,15,4,89.9,42.7,4.6,2,1.166,0.001,L,18,89.9,610.057,610.595,611.76,611.762,0,1,1.067707825,0.141421356,1.626857912
1,22102402,185,Low,10,Vague,1,10,15,33,31.7,42.7,8.9,10,33,15,31.7,8.9,42.7,2,1.26,0,R,15,42.7,612.266,615.212,616.472,616.474,0,0,1.219289411,1.067707825,1.249888884
1,22102402,186,Low,10,Precise,0,10,15,5,31.7,42.7,8.9,5,10,15,8.9,31.7,42.7,2,1.394,0,R,15,42.7,616.978,619.83,621.224,621.227,0,1,1.219289411,1.067707825,0.79302515
1,22102402,187,Low,10,Precise,0,15,17,5,42.7,90,8.9,5,15,17,8.9,42.7,90,2,0.706,0,R,17,90,621.73,622.302,623.008,623.01,0,1,1.067707825,0.047140452,0.79302515
1,22102402,188,Low,10,Vague,1,14,10,21,17.3,31.7,2.5,21,14,10,2.5,17.3,31.7,1,1.585,0.001,D,14,17.3,623.513,624.031,625.616,625.619,0,0,1.465908895,1.219289411,0.418993503
1,22102402,189,Low,10,Vague,1,15,18,24,42.7,89.9,1.3,15,24,18,42.7,1.3,89.9,2,0.664,0.001,R,18,89.9,626.121,628.48,629.144,629.146,0,0,1.067707825,0.141421356,0.124721913
1,22102402,190,Low,10,Vague,1,15,16,33,42.7,64.9,8.9,15,33,16,42.7,8.9,64.9,1,1.24,0.001,L,15,42.7,629.65,632.16,633.4,633.403,0,0,1.067707825,12.09802555,1.249888884
1,22102402,191,Low,10,Vague,1,14,16,24,17.3,64.9,1.3,14,24,16,17.3,1.3,64.9,1,0.847,0.001,L,14,17.3,633.907,636.161,637.008,637.011,0,0,1.465908895,12.09802555,0.124721913
1,22102402,192,Low,10,Precise,0,14,18,1,17.3,89.9,1.9,18,1,14,89.9,1.9,17.3,2,0.83,0.001,L,18,89.9,637.514,639.842,640.672,640.674,0,1,1.465908895,0.141421356,0.188561808
1,22102402,193,Low,10,Precise,0,14,10,11,17.3,31.7,6.4,10,11,14,31.7,6.4,17.3,1,0.636,0,R,14,17.3,641.177,643.044,643.68,643.682,0,1,1.465908895,1.219289411,3.47978288
1,22102402,194,Low,10,Precise,0,16,18,2,64.9,89.9,2.3,16,2,18,64.9,2.3,89.9,2,0.766,0,R,18,89.9,644.185,644.714,645.48,645.482,0,1,12.09802555,0.141421356,0.697614985
1,22102402,195,Low,10,Vague,1,15,18,19,42.7,89.9,3,15,18,19,42.7,89.9,3,1,0.739,0,L,15,42.7,645.986,646.909,647.648,647.651,0,0,1.067707825,0.141421356,1.30979218
1,22102402,196,Low,10,Precise,0,10,18,3,31.7,89.9,2.4,18,3,10,89.9,2.4,31.7,2,0.667,0,L,18,89.9,648.154,649.341,650.008,650.01,0,1,1.219289411,0.141421356,0.294392029
1,22102402,197,Low,10,Vague,1,10,16,21,31.7,64.9,2.5,10,21,16,31.7,2.5,64.9,2,1.147,0,R,16,64.9,650.513,652.893,654.04,654.042,0,0,1.219289411,12.09802555,0.418993503
1,22102402,198,Low,10,Vague,1,14,18,24,17.3,89.9,1.3,14,18,24,17.3,89.9,1.3,2,1.474,0.001,D,18,89.9,654.545,656.614,658.088,658.091,0,0,1.465908895,0.141421356,0.124721913
1,22102402,199,Low,10,Vague,1,14,16,19,17.3,64.9,3,14,19,16,17.3,3,64.9,2,1.474,0.001,R,16,64.9,658.594,661.51,662.984,662.986,0,0,1.465908895,12.09802555,1.30979218
1,22102402,200,Low,10,Precise,0,10,17,11,31.7,90,6.4,11,10,17,6.4,31.7,90,2,0.752,0.001,R,17,90,663.49,665.48,666.232,666.235,0,1,1.219289411,0.047140452,3.47978288
1,22102402,201,Low,10,Vague,1,15,17,25,42.7,90,5,15,25,17,42.7,5,90,2,0.543,0,R,17,90,666.739,668.744,669.288,669.29,0,0,1.067707825,0.047140452,1.987181141
1,22102402,202,Low,10,Vague,1,14,15,33,17.3,42.7,8.9,14,15,33,17.3,42.7,8.9,2,2.546,0.001,D,15,42.7,669.794,672.182,674.728,674.731,0,0,1.465908895,1.067707825,1.249888884
1,22102402,203,Low,10,Precise,0,15,17,3,42.7,90,2.4,17,15,3,90,42.7,2.4,2,0.919,0,L,17,90,675.234,676.905,677.824,677.826,0,1,1.067707825,0.047140452,0.294392029
1,22102402,204,Low,10,Precise,0,10,16,2,31.7,64.9,2.3,2,16,10,2.3,64.9,31.7,2,1.143,0,D,16,64.9,678.33,679.721,680.864,680.866,0,1,1.219289411,12.09802555,0.697614985
1,22102402,205,Low,10,Precise,0,15,17,11,42.7,90,6.4,17,11,15,90,6.4,42.7,2,0.814,0.001,L,17,90,681.369,684.13,684.944,684.946,0,1,1.067707825,0.047140452,3.47978288
1,22102402,206,Low,10,Precise,0,10,17,3,31.7,90,2.4,17,10,3,90,31.7,2.4,2,0.654,0,L,17,90,685.449,688.346,689,689.002,0,1,1.219289411,0.047140452,0.294392029
1,22102402,207,Low,10,Vague,1,15,16,31,42.7,64.9,7.2,15,16,31,42.7,64.9,7.2,2,2.367,0.001,D,16,64.9,689.506,690.497,692.864,692.866,0,0,1.067707825,12.09802555,4.166799998
1,22102402,208,Low,10,Vague,1,10,18,31,31.7,89.9,7.2,10,31,18,31.7,7.2,89.9,2,1.579,0.001,R,18,89.9,693.369,695.949,697.528,697.531,0,0,1.219289411,0.141421356,4.166799998
1,22102402,209,Low,10,Precise,0,14,10,3,17.3,31.7,2.4,3,14,10,2.4,17.3,31.7,1,1.294,0,D,14,17.3,698.033,699.898,701.192,701.194,0,1,1.465908895,1.219289411,0.294392029
1,22102402,210,Low,10,Precise,0,14,18,4,17.3,89.9,4.6,14,18,4,17.3,89.9,4.6,2,0.987,0,D,18,89.9,701.697,704.325,705.312,705.314,0,1,1.465908895,0.141421356,1.626857912
1,22102402,211,Low,10,Vague,1,10,17,25,31.7,90,5,25,10,17,5,31.7,90,2,1.556,0,R,17,90,705.818,707.628,709.184,709.187,0,0,1.219289411,0.047140452,1.987181141
1,22102402,212,Low,10,Vague,1,16,18,21,64.9,89.9,2.5,16,18,21,64.9,89.9,2.5,2,0.908,0.001,D,18,89.9,709.689,712.172,713.08,713.083,0,0,12.09802555,0.141421356,0.418993503
1,22102402,213,Low,10,Precise,0,14,18,11,17.3,89.9,6.4,18,11,14,89.9,6.4,17.3,2,0.946,0.001,L,18,89.9,713.586,714.087,715.032,715.035,0,1,1.465908895,0.141421356,3.47978288
1,22102402,214,Low,10,Precise,0,14,17,3,17.3,90,2.4,17,14,3,90,17.3,2.4,2,0.755,0.001,L,17,90,715.538,717.445,718.2,718.203,0,1,1.465908895,0.047140452,0.294392029
1,22102402,215,Low,10,Vague,1,15,18,25,42.7,89.9,5,18,25,15,89.9,5,42.7,2,0.823,0,L,18,89.9,718.706,720.056,720.88,720.882,0,0,1.067707825,0.141421356,1.987181141
1,22102402,216,Low,10,Precise,0,15,18,11,42.7,89.9,6.4,11,15,18,6.4,42.7,89.9,2,0.815,0,R,18,89.9,721.385,723.225,724.04,724.042,0,1,1.067707825,0.141421356,3.47978288
1,22102402,217,Low,10,Precise,0,15,16,2,42.7,64.9,2.3,15,16,2,42.7,64.9,2.3,1,0.757,0,L,15,42.7,724.545,725.955,726.712,726.715,0,1,1.067707825,12.09802555,0.697614985
1,22102402,218,Low,10,Precise,0,18,17,2,89.9,90,2.3,17,2,18,90,2.3,89.9,2,0.54,0,L,17,90,727.217,728.173,728.712,728.715,0,1,0.141421356,0.047140452,0.697614985
1,22102402,219,Low,10,Precise,0,10,16,11,31.7,64.9,6.4,10,16,11,31.7,64.9,6.4,2,1.635,0.001,D,16,64.9,729.218,730.069,731.704,731.706,0,1,1.219289411,12.09802555,3.47978288
1,22102402,220,Low,10,Vague,1,16,17,33,64.9,90,8.9,16,33,17,64.9,8.9,90,2,0.571,0,R,17,90,732.209,734.924,735.496,735.498,0,0,12.09802555,0.047140452,1.249888884
1,22102402,221,Low,10,Precise,0,16,17,3,64.9,90,2.4,17,16,3,90,64.9,2.4,2,0.545,0.001,L,17,90,736.002,738.911,739.456,739.459,0,1,12.09802555,0.047140452,0.294392029
1,22102402,222,Low,10,Precise,0,14,16,1,17.3,64.9,1.9,14,16,1,17.3,64.9,1.9,1,1.422,0.001,L,14,17.3,739.961,741.098,742.52,742.522,0,1,1.465908895,12.09802555,0.188561808
1,22102402,223,Low,10,Vague,1,16,17,19,64.9,90,3,16,17,19,64.9,90,3,2,0.755,0,D,17,90,743.025,744.806,745.56,745.563,0,0,12.09802555,0.047140452,1.30979218
1,22102402,224,Low,10,Precise,0,16,17,4,64.9,90,4.6,17,4,16,90,4.6,64.9,2,0.547,0,L,17,90,746.066,747.261,747.808,747.81,0,1,12.09802555,0.047140452,1.626857912
1,22102402,225,Low,10,Precise,0,18,17,1,89.9,90,1.9,17,18,1,90,89.9,1.9,2,0.499,0.001,L,17,90,748.313,749.717,750.216,750.218,0,1,0.141421356,0.047140452,0.188561808
1,22102402,226,Low,10,Precise,0,14,17,11,17.3,90,6.4,14,17,11,17.3,90,6.4,2,0.549,0,D,17,90,750.721,753.459,754.008,754.011,0,1,1.465908895,0.047140452,3.47978288
1,22102402,227,Low,10,Precise,0,10,18,4,31.7,89.9,4.6,10,18,4,31.7,89.9,4.6,2,0.924,0.001,D,18,89.9,754.514,756.357,757.28,757.283,0,1,1.219289411,0.141421356,1.626857912
1,22102402,228,Low,10,Vague,1,18,17,21,89.9,90,2.5,21,17,18,2.5,90,89.9,2,0.884,0.001,D,17,90,757.786,759.773,760.656,760.658,0,0,0.141421356,0.047140452,0.418993503
1,22102402,229,Low,10,Vague,1,14,18,25,17.3,89.9,5,14,25,18,17.3,5,89.9,2,1.038,0,R,18,89.9,761.161,763.21,764.248,764.25,0,0,1.465908895,0.141421356,1.987181141
1,22102402,230,Low,10,Precise,0,14,17,4,17.3,90,4.6,17,4,14,90,4.6,17.3,2,0.853,0,L,17,90,764.753,767.012,767.864,767.867,0,1,1.465908895,0.047140452,1.626857912
1,22102402,231,Low,10,Precise,0,10,17,5,31.7,90,8.9,5,17,10,8.9,90,31.7,2,0.907,0.001,D,17,90,768.37,770.35,771.256,771.259,0,1,1.219289411,0.047140452,0.79302515
1,22102402,232,Low,10,Vague,1,14,16,33,17.3,64.9,8.9,16,33,14,64.9,8.9,17.3,2,1.584,0,L,16,64.9,771.761,772.336,773.92,773.922,0,0,1.465908895,12.09802555,1.249888884
1,22102402,233,Low,10,Vague,1,10,16,24,31.7,64.9,1.3,24,16,10,1.3,64.9,31.7,2,1.677,0,D,16,64.9,774.426,777.339,779.016,779.018,0,0,1.219289411,12.09802555,0.124721913
1,22102402,234,Low,10,Precise,0,16,18,11,64.9,89.9,6.4,16,18,11,64.9,89.9,6.4,1,0.544,0,L,16,64.9,779.522,780.496,781.04,781.043,0,1,12.09802555,0.141421356,3.47978288
1,22102402,235,Low,10,Vague,1,10,17,24,31.7,90,1.3,24,17,10,1.3,90,31.7,2,0.653,0,D,17,90,781.546,783.315,783.968,783.97,0,0,1.219289411,0.047140452,0.124721913
1,22102402,236,Low,10,Vague,1,15,18,21,42.7,89.9,2.5,21,18,15,2.5,89.9,42.7,2,0.911,0.001,D,18,89.9,784.474,787.37,788.28,788.283,0,0,1.067707825,0.141421356,0.418993503
1,22102402,237,Low,10,Vague,1,15,17,21,42.7,90,2.5,17,21,15,90,2.5,42.7,2,0.688,0,L,17,90,788.786,791.432,792.12,792.122,0,0,1.067707825,0.047140452,0.418993503
1,22102402,238,Low,10,Vague,1,15,17,31,42.7,90,7.2,15,31,17,42.7,7.2,90,2,0.661,0,R,17,90,792.626,794.539,795.2,795.203,0,0,1.067707825,0.047140452,4.166799998
1,22102402,239,Low,10,Precise,0,10,16,5,31.7,64.9,8.9,10,5,16,31.7,8.9,64.9,2,1.752,0,R,16,64.9,795.705,798.096,799.848,799.851,0,1,1.219289411,12.09802555,0.79302515
1,22102402,240,Low,10,Precise,0,15,16,11,42.7,64.9,6.4,11,15,16,6.4,42.7,64.9,1,1.371,0,D,15,42.7,800.354,802.165,803.536,803.538,0,1,1.067707825,12.09802555,3.47978288
1,22102402,241,Low,10,Precise,0,15,18,3,42.7,89.9,2.4,3,15,18,2.4,42.7,89.9,2,1.185,0,R,18,89.9,819.674,821.983,823.168,823.17,0,1,1.067707825,0.141421356,0.294392029
1,22102402,242,Low,10,Vague,1,14,17,33,17.3,90,8.9,14,17,33,17.3,90,8.9,2,0.769,0,D,17,90,823.674,825.375,826.144,826.147,0,0,1.465908895,0.047140452,1.249888884
1,22102402,243,Low,10,Precise,0,10,15,4,31.7,42.7,4.6,4,15,10,4.6,42.7,31.7,2,0.722,0.001,D,15,42.7,826.65,828.15,828.872,828.875,0,1,1.219289411,1.067707825,1.626857912
1,22102402,244,Low,10,Precise,0,18,17,4,89.9,90,4.6,17,4,18,90,4.6,89.9,2,0.609,0.001,L,17,90,829.378,832.296,832.904,832.907,0,1,0.141421356,0.047140452,1.626857912
1,22102402,245,Low,10,Vague,1,18,17,25,89.9,90,5,25,17,18,5,90,89.9,2,0.578,0.001,D,17,90,833.41,835.886,836.464,836.467,0,0,0.141421356,0.047140452,1.987181141
1,22102402,246,Low,10,Vague,1,16,17,21,64.9,90,2.5,16,17,21,64.9,90,2.5,2,0.539,0.001,D,17,90,836.969,839.126,839.664,839.667,0,0,12.09802555,0.047140452,0.418993503
1,22102402,247,Low,10,Vague,1,14,15,21,17.3,42.7,2.5,15,14,21,42.7,17.3,2.5,2,1.415,0.001,L,15,42.7,840.169,842.009,843.424,843.427,0,0,1.465908895,1.067707825,0.418993503
1,22102402,248,Low,10,Vague,1,15,17,33,42.7,90,8.9,15,33,17,42.7,8.9,90,2,0.616,0.001,R,17,90,843.93,844.616,845.232,845.235,0,0,1.067707825,0.047140452,1.249888884
1,22102402,249,Low,10,Vague,1,15,18,33,42.7,89.9,8.9,18,15,33,89.9,42.7,8.9,2,0.933,0,L,18,89.9,845.738,847.491,848.424,848.426,0,0,1.067707825,0.141421356,1.249888884
1,22102402,250,Low,10,Precise,0,10,18,2,31.7,89.9,2.3,10,18,2,31.7,89.9,2.3,2,0.758,0,D,18,89.9,848.929,850.258,851.016,851.019,0,1,1.219289411,0.141421356,0.697614985
1,22102402,251,Low,10,Vague,1,10,15,31,31.7,42.7,7.2,10,15,31,31.7,42.7,7.2,2,1.394,0.001,D,15,42.7,851.521,852.406,853.8,853.803,0,0,1.219289411,1.067707825,4.166799998
1,22102402,252,Low,10,Vague,1,14,17,24,17.3,90,1.3,17,24,14,90,1.3,17.3,2,0.541,0,L,17,90,854.306,855.395,855.936,855.938,0,0,1.465908895,0.047140452,0.124721913
1,22102402,253,Low,10,Precise,0,10,16,3,31.7,64.9,2.4,16,3,10,64.9,2.4,31.7,2,2.047,0,L,16,64.9,856.442,857.529,859.576,859.579,0,1,1.219289411,12.09802555,0.294392029
1,22102402,254,Low,10,Precise,0,14,15,11,17.3,42.7,6.4,11,15,14,6.4,42.7,17.3,1,1.271,0,R,14,17.3,860.083,862.561,863.832,863.835,0,1,1.465908895,1.067707825,3.47978288
1,22102402,255,Low,10,Precise,0,15,17,2,42.7,90,2.3,17,15,2,90,42.7,2.3,2,0.6,0.001,L,17,90,864.338,866.921,867.52,867.523,0,1,1.067707825,0.047140452,0.697614985
1,22102402,256,Low,10,Precise,0,14,15,1,17.3,42.7,1.9,1,15,14,1.9,42.7,17.3,2,2.119,0.001,D,15,42.7,868.026,868.778,870.896,870.899,0,1,1.465908895,1.067707825,0.188561808
1,22102402,257,Low,10,Vague,1,15,17,19,42.7,90,3,15,17,19,42.7,90,3,2,0.772,0,D,17,90,871.401,873.221,873.992,873.994,0,0,1.067707825,0.047140452,1.30979218
1,22102402,258,Low,10,Vague,1,16,17,31,64.9,90,7.2,16,17,31,64.9,90,7.2,2,0.56,0,D,17,90,874.498,875.152,875.712,875.715,0,0,12.09802555,0.047140452,4.166799998
1,22102402,259,Low,10,Vague,1,10,16,25,31.7,64.9,5,10,25,16,31.7,5,64.9,2,1.004,0.001,R,16,64.9,876.218,878.068,879.072,879.075,0,0,1.219289411,12.09802555,1.987181141
1,22102402,260,Low,10,Vague,1,10,15,21,31.7,42.7,2.5,21,15,10,2.5,42.7,31.7,2,1.214,0.001,D,15,42.7,879.577,880.634,881.849,881.851,0,0,1.219289411,1.067707825,0.418993503
1,22102402,261,Low,10,Precise,0,18,17,3,89.9,90,2.4,17,3,18,90,2.4,89.9,2,0.734,0,L,17,90,882.354,884.338,885.072,885.075,0,1,0.141421356,0.047140452,0.294392029
1,22102402,262,Low,10,Vague,1,14,10,31,17.3,31.7,7.2,10,31,14,31.7,7.2,17.3,1,0.927,0.001,R,14,17.3,885.578,886.73,887.656,887.659,0,0,1.465908895,1.219289411,4.166799998
1,22102402,263,Low,10,Vague,1,10,18,25,31.7,89.9,5,18,10,25,89.9,31.7,5,2,1.055,0,L,18,89.9,888.162,889.793,890.848,890.85,0,0,1.219289411,0.141421356,1.987181141
1,22102402,264,Low,10,Precise,0,10,17,1,31.7,90,1.9,10,1,17,31.7,1.9,90,2,1.293,0,R,17,90,891.354,892.203,893.496,893.499,0,1,1.219289411,0.047140452,0.188561808
1,22102402,265,Low,10,Vague,1,14,17,31,17.3,90,7.2,17,14,31,90,17.3,7.2,2,0.529,0.001,L,17,90,894.002,895.632,896.16,896.163,0,0,1.465908895,0.047140452,4.166799998
1,22102402,266,Low,10,Vague,1,10,17,31,31.7,90,7.2,10,17,31,31.7,90,7.2,2,0.562,0.001,D,17,90,896.665,897.71,898.273,898.275,0,0,1.219289411,0.047140452,4.166799998
1,22102402,267,Low,10,Precise,0,15,17,1,42.7,90,1.9,15,1,17,42.7,1.9,90,2,0.528,0,R,17,90,898.777,900.905,901.432,901.435,0,1,1.067707825,0.047140452,0.188561808
1,22102402,268,Low,10,Precise,0,14,16,11,17.3,64.9,6.4,11,14,16,6.4,17.3,64.9,1,1.605,0,D,14,17.3,901.937,902.723,904.328,904.331,0,1,1.465908895,12.09802555,3.47978288
1,22102402,269,Low,10,Precise,0,14,18,2,17.3,89.9,2.3,2,18,14,2.3,89.9,17.3,1,0.799,0.001,R,14,17.3,904.834,906.354,907.152,907.155,0,1,1.465908895,0.141421356,0.697614985
1,22102402,270,Low,10,Precise,0,14,10,4,17.3,31.7,4.6,4,14,10,4.6,17.3,31.7,1,1.03,0,D,14,17.3,907.657,909.914,910.945,910.947,0,1,1.465908895,1.219289411,1.626857912
1,22102402,271,Low,10,Precise,0,14,16,2,17.3,64.9,2.3,16,2,14,64.9,2.3,17.3,1,0.627,0,R,14,17.3,911.45,912.237,912.864,912.867,0,1,1.465908895,12.09802555,0.697614985
1,22102402,272,Low,10,Precise,0,10,15,11,31.7,42.7,6.4,15,10,11,42.7,31.7,6.4,2,1.443,0.001,L,15,42.7,913.37,915.67,917.112,917.115,0,1,1.219289411,1.067707825,3.47978288
1,22102402,273,Low,10,Vague,1,15,16,19,42.7,64.9,3,15,19,16,42.7,3,64.9,1,1.663,0,L,15,42.7,917.618,919.409,921.072,921.075,0,0,1.067707825,12.09802555,1.30979218
1,22102402,274,Low,10,Vague,1,15,16,25,42.7,64.9,5,16,25,15,64.9,5,42.7,1,1.429,0,R,15,42.7,921.577,923.323,924.752,924.755,0,0,1.067707825,12.09802555,1.987181141
1,22102402,275,Low,10,Vague,1,10,17,21,31.7,90,2.5,10,21,17,31.7,2.5,90,2,0.557,0.001,R,17,90,925.258,926.844,927.4,927.403,0,0,1.219289411,0.047140452,0.418993503
1,22102402,276,Low,10,Vague,1,18,17,31,89.9,90,7.2,18,17,31,89.9,90,7.2,2,0.611,0.001,D,17,90,927.906,929.725,930.336,930.339,0,0,0.141421356,0.047140452,4.166799998
1,22102402,277,Low,10,Vague,1,15,16,21,42.7,64.9,2.5,16,21,15,64.9,2.5,42.7,2,5.172,0.001,L,16,64.9,930.841,931.509,936.68,936.683,0,0,1.067707825,12.09802555,0.418993503
1,22102402,278,Low,10,Precise,0,14,15,2,17.3,42.7,2.3,14,15,2,17.3,42.7,2.3,2,1.089,0,D,15,42.7,937.187,939.559,940.648,940.651,0,1,1.465908895,1.067707825,0.697614985
1,22102402,279,Low,10,Vague,1,18,17,24,89.9,90,1.3,18,24,17,89.9,1.3,90,2,0.637,0.001,R,17,90,941.154,943.02,943.657,943.66,0,0,0.141421356,0.047140452,0.124721913
1,22102402,280,Low,10,Vague,1,10,15,25,31.7,42.7,5,15,10,25,42.7,31.7,5,2,0.988,0,L,15,42.7,944.162,946.74,947.728,947.731,0,0,1.219289411,1.067707825,1.987181141
1,22102402,281,Low,10,Precise,0,15,16,5,42.7,64.9,8.9,15,5,16,42.7,8.9,64.9,1,1.252,0.001,L,15,42.7,948.233,950.996,952.249,952.251,0,1,1.067707825,12.09802555,0.79302515
1,22102402,282,Low,10,Precise,0,14,15,3,17.3,42.7,2.4,14,3,15,17.3,2.4,42.7,2,0.91,0.001,R,15,42.7,952.754,953.619,954.529,954.531,0,1,1.465908895,1.067707825,0.294392029
1,22102402,283,Low,10,Precise,0,14,18,5,17.3,89.9,8.9,18,14,5,89.9,17.3,8.9,2,0.989,0,L,18,89.9,955.034,955.563,956.552,956.555,0,1,1.465908895,0.141421356,0.79302515
1,22102402,284,Low,10,Precise,0,16,18,5,64.9,89.9,8.9,18,16,5,89.9,64.9,8.9,2,0.578,0,L,18,89.9,957.058,959.095,959.673,959.675,0,1,12.09802555,0.141421356,0.79302515
1,22102402,285,Low,10,Vague,1,15,17,24,42.7,90,1.3,24,17,15,1.3,90,42.7,2,0.747,0.001,D,17,90,960.178,962.333,963.081,963.083,0,0,1.067707825,0.047140452,0.124721913
1,22102402,286,Low,10,Vague,1,14,15,31,17.3,42.7,7.2,14,15,31,17.3,42.7,7.2,2,2.298,0,D,15,42.7,963.585,966.287,968.585,968.587,0,0,1.465908895,1.067707825,4.166799998
1,22102402,287,Low,10,Precise,0,16,17,11,64.9,90,6.4,16,11,17,64.9,6.4,90,2,0.655,0,R,17,90,969.09,970.161,970.816,970.819,0,1,12.09802555,0.047140452,3.47978288
1,22102402,288,Low,10,Vague,1,10,18,33,31.7,89.9,8.9,18,33,10,89.9,8.9,31.7,2,1.283,0,L,18,89.9,971.322,971.885,973.168,973.171,0,0,1.219289411,0.141421356,1.249888884
1,22102402,289,Low,10,Vague,1,14,15,24,17.3,42.7,1.3,24,15,14,1.3,42.7,17.3,1,0.923,0,R,14,17.3,973.674,976.253,977.176,977.179,0,0,1.465908895,1.067707825,0.124721913
1,22102402,290,Low,10,Precise,0,14,10,2,17.3,31.7,2.3,2,10,14,2.3,31.7,17.3,1,0.654,0,R,14,17.3,977.681,978.906,979.56,979.563,0,1,1.465908895,1.219289411,0.697614985
1,22102402,291,Low,10,Precise,0,14,16,3,17.3,64.9,2.4,16,14,3,64.9,17.3,2.4,2,1.993,0,L,16,64.9,980.066,981.375,983.368,983.371,0,1,1.465908895,12.09802555,0.294392029
1,22102402,292,Low,10,Vague,1,16,18,31,64.9,89.9,7.2,18,31,16,89.9,7.2,64.9,2,2.148,0.001,L,18,89.9,983.873,985.588,987.736,987.739,0,0,12.09802555,0.141421356,4.166799998
1,22102402,293,Low,10,Precise,0,10,15,2,31.7,42.7,2.3,2,15,10,2.3,42.7,31.7,2,2.954,0.001,D,15,42.7,988.242,989.766,992.72,992.723,0,1,1.219289411,1.067707825,0.697614985
1,22102402,294,Low,10,Vague,1,10,18,21,31.7,89.9,2.5,21,10,18,2.5,31.7,89.9,2,0.901,0.001,R,18,89.9,993.226,994.54,995.441,995.443,0,0,1.219289411,0.141421356,0.418993503
1,22102402,295,Low,10,Vague,1,14,17,19,17.3,90,3,14,17,19,17.3,90,3,2,0.604,0,D,17,90,995.945,998.293,998.897,998.899,0,0,1.465908895,0.047140452,1.30979218
1,22102402,296,Low,10,Vague,1,10,18,24,31.7,89.9,1.3,24,10,18,1.3,31.7,89.9,2,0.617,0.001,R,18,89.9,999.402,1000.728,1001.345,1001.347,0,0,1.219289411,0.141421356,0.124721913
1,22102402,297,Low,10,Precise,0,15,16,4,42.7,64.9,4.6,15,16,4,42.7,64.9,4.6,2,1.075,0.001,D,16,64.9,1001.849,1003.766,1004.841,1004.843,0,1,1.067707825,12.09802555,1.626857912
1,22102402,298,Low,10,Vague,1,10,17,33,31.7,90,8.9,17,33,10,90,8.9,31.7,2,0.713,0,L,17,90,1005.346,1008.296,1009.009,1009.011,0,0,1.219289411,0.047140452,1.249888884
1,22102402,299,Low,10,Vague,1,14,10,19,17.3,31.7,3,19,14,10,3,17.3,31.7,1,0.911,0,D,14,17.3,1009.514,1011.569,1012.48,1012.483,0,0,1.465908895,1.219289411,1.30979218
1,22102402,300,Low,10,Precise,0,14,17,1,17.3,90,1.9,1,14,17,1.9,17.3,90,2,0.604,0,R,17,90,1012.985,1014.284,1014.889,1014.891,0,1,1.465908895,0.047140452,0.188561808
1,22102402,301,Low,10,Vague,1,10,16,33,31.7,64.9,8.9,10,16,33,31.7,64.9,8.9,2,2.563,0,D,16,64.9,1026.009,1026.509,1029.073,1029.075,0,0,1.219289411,12.09802555,1.249888884
1,22102402,302,Low,10,Precise,0,10,16,1,31.7,64.9,1.9,1,10,16,1.9,31.7,64.9,2,0.613,0.001,R,16,64.9,1029.578,1030.347,1030.961,1030.963,0,1,1.219289411,12.09802555,0.188561808
1,22102402,303,Low,10,Vague,1,14,10,33,17.3,31.7,8.9,10,14,33,31.7,17.3,8.9,1,1.03,0.001,D,14,17.3,1031.465,1034.443,1035.473,1035.475,0,0,1.465908895,1.219289411,1.249888884
1,22102402,304,Low,10,Precise,0,16,18,3,64.9,89.9,2.4,3,16,18,2.4,64.9,89.9,2,0.969,0,R,18,89.9,1035.977,1037.583,1038.553,1038.555,0,1,12.09802555,0.141421356,0.294392029
1,22102402,305,Low,10,Precise,0,14,10,1,17.3,31.7,1.9,10,14,1,31.7,17.3,1.9,1,1.231,0,D,14,17.3,1039.058,1040.705,1041.937,1041.939,0,1,1.465908895,1.219289411,0.188561808
1,22102402,306,Low,10,Precise,0,10,15,1,31.7,42.7,1.9,15,1,10,42.7,1.9,31.7,2,1.593,0,L,15,42.7,1042.442,1044.424,1046.017,1046.019,0,1,1.219289411,1.067707825,0.188561808
1,22102402,307,Low,10,Precise,0,10,15,3,31.7,42.7,2.4,15,3,10,42.7,2.4,31.7,2,0.605,0,L,15,42.7,1046.522,1047.18,1047.784,1047.787,0,1,1.219289411,1.067707825,0.294392029
1,22102402,308,Low,10,Vague,1,10,16,19,31.7,64.9,3,16,10,19,64.9,31.7,3,2,0.778,0,L,16,64.9,1048.289,1050.854,1051.632,1051.635,0,0,1.219289411,12.09802555,1.30979218
1,22102402,309,Low,10,Vague,1,16,17,24,64.9,90,1.3,17,24,16,90,1.3,64.9,2,0.516,0,L,17,90,1052.137,1053.524,1054.04,1054.043,0,0,12.09802555,0.047140452,0.124721913
1,22102402,310,Low,10,Vague,1,14,16,25,17.3,64.9,5,14,16,25,17.3,64.9,5,1,0.775,0.001,L,14,17.3,1054.545,1056.482,1057.257,1057.259,0,0,1.465908895,12.09802555,1.987181141
1,22102402,311,Low,10,Vague,1,14,17,25,17.3,90,5,14,17,25,17.3,90,5,2,0.614,0,D,17,90,1057.762,1060.643,1061.256,1061.259,0,0,1.465908895,0.047140452,1.987181141
1,22102402,312,Low,10,Precise,0,14,15,4,17.3,42.7,4.6,14,15,4,17.3,42.7,4.6,2,1.617,0.001,D,15,42.7,1061.762,1064.487,1066.105,1066.107,0,1,1.465908895,1.067707825,1.626857912
1,22102402,313,Low,10,Vague,1,14,17,21,17.3,90,2.5,21,17,14,2.5,90,17.3,2,0.515,0,D,17,90,1066.609,1067.541,1068.057,1068.059,0,0,1.465908895,0.047140452,0.418993503
1,22102402,314,Low,10,Vague,1,14,18,19,17.3,89.9,3,19,18,14,3,89.9,17.3,2,0.853,0,D,18,89.9,1068.562,1070.411,1071.265,1071.267,0,0,1.465908895,0.141421356,1.30979218
1,22102402,315,Low,10,Precise,0,14,16,5,17.3,64.9,8.9,16,14,5,64.9,17.3,8.9,1,1.318,0.001,D,14,17.3,1071.769,1074.059,1075.377,1075.379,0,1,1.465908895,12.09802555,0.79302515
1,22102402,316,Low,10,Vague,1,10,15,24,31.7,42.7,1.3,15,10,24,42.7,31.7,1.3,2,1.132,0.001,L,15,42.7,1075.882,1077.677,1078.809,1078.811,0,0,1.219289411,1.067707825,0.124721913
1,22102402,317,Low,10,Vague,1,14,15,25,17.3,42.7,5,25,14,15,5,17.3,42.7,1,1.113,0,D,14,17.3,1079.314,1081.336,1082.448,1082.451,0,0,1.465908895,1.067707825,1.987181141
1,22102402,318,Low,10,Vague,1,14,18,33,17.3,89.9,8.9,14,33,18,17.3,8.9,89.9,2,1.064,0.001,R,18,89.9,1082.954,1084.464,1085.529,1085.531,0,0,1.465908895,0.141421356,1.249888884
1,22102402,319,Low,10,Vague,1,10,15,19,31.7,42.7,3,10,19,15,31.7,3,42.7,2,1.13,0,R,15,42.7,1086.034,1088.071,1089.2,1089.203,0,0,1.219289411,1.067707825,1.30979218
1,22102402,320,Low,10,Precise,0,15,18,2,42.7,89.9,2.3,18,2,15,89.9,2.3,42.7,2,0.671,0.001,L,18,89.9,1089.706,1091.321,1091.993,1091.995,0,1,1.067707825,0.141421356,0.697614985
1,22102402,321,Low,10,Precise,0,14,18,3,17.3,89.9,2.4,18,3,14,89.9,2.4,17.3,2,0.523,0,L,18,89.9,1092.499,1093.189,1093.712,1093.715,0,1,1.465908895,0.141421356,0.294392029
1,22102402,322,Low,10,Precise,0,14,17,5,17.3,90,8.9,17,5,14,90,8.9,17.3,2,0.638,0,L,17,90,1094.218,1096.602,1097.24,1097.243,0,1,1.465908895,0.047140452,0.79302515
1,22102402,323,Low,10,Vague,1,15,18,31,42.7,89.9,7.2,18,31,15,89.9,7.2,42.7,2,0.77,0,L,18,89.9,1097.746,1099.03,1099.801,1099.803,0,0,1.067707825,0.141421356,4.166799998
1,22102402,324,Low,10,Precise,0,16,17,2,64.9,90,2.3,16,17,2,64.9,90,2.3,2,0.604,0,D,17,90,1100.306,1101.244,1101.849,1101.851,0,1,12.09802555,0.047140452,0.697614985
1,22102402,325,Low,10,Vague,1,14,10,25,17.3,31.7,5,10,25,14,31.7,5,17.3,1,0.912,0.001,R,14,17.3,1102.354,1103.993,1104.905,1104.907,0,0,1.465908895,1.219289411,1.987181141
1,22102402,326,Low,10,Vague,1,10,17,19,31.7,90,3,17,10,19,90,31.7,3,2,0.563,0,L,17,90,1105.41,1106.661,1107.225,1107.227,0,0,1.219289411,0.047140452,1.30979218
1,22102402,327,Low,10,Precise,0,10,18,1,31.7,89.9,1.9,10,1,18,31.7,1.9,89.9,2,1.83,0,R,18,89.9,1107.729,1109.411,1111.241,1111.243,0,1,1.219289411,0.141421356,0.188561808
1,22102402,328,Low,10,Precise,0,15,16,1,42.7,64.9,1.9,15,16,1,42.7,64.9,1.9,2,2.024,0,D,16,64.9,1111.746,1113.497,1115.521,1115.523,0,1,1.067707825,12.09802555,0.188561808
1,22102402,329,Low,10,Precise,0,16,17,1,64.9,90,1.9,17,1,16,90,1.9,64.9,2,0.717,0.001,L,17,90,1116.026,1118.276,1118.993,1118.995,0,1,12.09802555,0.047140452,0.188561808
1,22102402,330,Low,10,Precise,0,15,18,1,42.7,89.9,1.9,15,18,1,42.7,89.9,1.9,2,1.353,0.001,D,18,89.9,1119.498,1121.104,1122.457,1122.459,0,1,1.067707825,0.141421356,0.188561808
1,22102402,331,Low,10,Vague,1,16,18,33,64.9,89.9,8.9,33,18,16,8.9,89.9,64.9,2,0.577,0,D,18,89.9,1122.961,1123.855,1124.433,1124.435,0,0,12.09802555,0.141421356,1.249888884
1,22102402,332,Low,10,Precise,0,16,18,4,64.9,89.9,4.6,16,18,4,64.9,89.9,4.6,2,0.498,0.001,D,18,89.9,1124.937,1126.695,1127.193,1127.195,0,1,12.09802555,0.141421356,1.626857912
1,22102402,333,Low,10,Vague,1,15,16,24,42.7,64.9,1.3,15,16,24,42.7,64.9,1.3,1,0.75,0,L,15,42.7,1127.698,1128.963,1129.713,1129.715,0,0,1.067707825,12.09802555,0.124721913
1,22102402,334,Low,10,Precise,0,14,17,2,17.3,90,2.3,2,14,17,2.3,17.3,90,2,0.875,0.001,R,17,90,1130.218,1132.582,1133.457,1133.46,0,1,1.465908895,0.047140452,0.697614985
1,22102402,335,Low,10,Vague,1,14,10,24,17.3,31.7,1.3,10,14,24,31.7,17.3,1.3,1,0.616,0,D,14,17.3,1133.962,1136.433,1137.048,1137.051,0,0,1.465908895,1.219289411,0.124721913
1,22102402,336,Low,10,Precise,0,10,17,2,31.7,90,2.3,10,17,2,31.7,90,2.3,2,0.661,0,D,17,90,1137.553,1139.388,1140.049,1140.051,0,1,1.219289411,0.047140452,0.697614985
1,22102402,337,Low,10,Vague,1,16,18,19,64.9,89.9,3,16,19,18,64.9,3,89.9,2,0.748,0,R,18,89.9,1140.554,1142.396,1143.145,1143.147,0,0,12.09802555,0.141421356,1.30979218
1,22102402,338,Low,10,Vague,1,18,17,19,89.9,90,3,17,18,19,90,89.9,3,2,0.63,0,L,17,90,1143.65,1146.042,1146.672,1146.675,0,0,0.141421356,0.047140452,1.30979218
1,22102402,339,Low,10,Precise,0,18,17,11,89.9,90,6.4,11,18,17,6.4,89.9,90,2,0.558,0.001,R,17,90,1147.178,1148.299,1148.857,1148.859,0,1,0.141421356,0.047140452,3.47978288
1,22102402,340,Low,10,Vague,1,14,18,21,17.3,89.9,2.5,14,18,21,17.3,89.9,2.5,1,0.739,0,L,14,17.3,1149.362,1151.381,1152.12,1152.123,0,0,1.465908895,0.141421356,0.418993503
1,22102402,341,Low,10,Vague,1,16,18,25,64.9,89.9,5,16,25,18,64.9,5,89.9,2,0.683,0,R,18,89.9,1152.625,1155.014,1155.697,1155.699,0,0,12.09802555,0.141421356,1.987181141
1,22102402,342,Low,10,Precise,0,10,16,4,31.7,64.9,4.6,16,4,10,64.9,4.6,31.7,2,1.2,0,L,16,64.9,1156.202,1159.129,1160.329,1160.331,0,1,1.219289411,12.09802555,1.626857912
1,22102402,343,Low,10,Precise,0,16,18,1,64.9,89.9,1.9,16,18,1,64.9,89.9,1.9,2,1.245,0.001,D,18,89.9,1160.834,1163.067,1164.313,1164.315,0,1,12.09802555,0.141421356,0.188561808
1,22102402,344,Low,10,Precise,0,14,10,5,17.3,31.7,8.9,14,10,5,17.3,31.7,8.9,1,1.649,0,L,14,17.3,1164.818,1167.008,1168.656,1168.659,0,1,1.465908895,1.219289411,0.79302515
1,22102402,345,Low,10,Precise,0,10,18,11,31.7,89.9,6.4,10,11,18,31.7,6.4,89.9,2,1.098,0,R,18,89.9,1169.162,1169.783,1170.881,1170.883,0,1,1.219289411,0.141421356,3.47978288
1,22102402,346,Low,10,Vague,1,14,15,19,17.3,42.7,3,14,19,15,17.3,3,42.7,2,2.218,0,R,15,42.7,1171.385,1172.206,1174.424,1174.427,0,0,1.465908895,1.067707825,1.30979218
1,22102402,347,Low,10,Vague,1,18,17,33,89.9,90,8.9,17,33,18,90,8.9,89.9,2,0.576,0.001,L,17,90,1174.929,1176.625,1177.201,1177.203,0,0,0.141421356,0.047140452,1.249888884
1,22102402,348,Low,10,Precise,0,15,17,4,42.7,90,4.6,15,17,4,42.7,90,4.6,2,1.062,0,D,17,90,1177.706,1180.515,1181.577,1181.579,0,1,1.067707825,0.047140452,1.626857912
1,22102402,349,Low,10,Precise,0,10,17,4,31.7,90,4.6,4,10,17,4.6,31.7,90,2,2.048,0.001,R,17,90,1182.082,1183.969,1186.017,1186.019,0,1,1.219289411,0.047140452,1.626857912
1,22102402,350,Low,10,Precise,0,18,17,5,89.9,90,8.9,5,18,17,8.9,89.9,90,2,0.479,0,R,17,90,1186.522,1188.122,1188.6,1188.603,0,1,0.141421356,0.047140452,0.79302515
1,22102402,351,Low,10,Vague,1,14,18,31,17.3,89.9,7.2,31,18,14,7.2,89.9,17.3,2,0.805,0.001,D,18,89.9,1189.106,1190.052,1190.857,1190.859,0,0,1.465908895,0.141421356,4.166799998
1,22102402,352,Low,10,Vague,1,14,16,21,17.3,64.9,2.5,16,14,21,64.9,17.3,2.5,2,0.858,0.001,L,16,64.9,1191.362,1192.255,1193.113,1193.115,0,0,1.465908895,12.09802555,0.418993503
1,22102402,353,Low,10,Vague,1,16,18,24,64.9,89.9,1.3,16,18,24,64.9,89.9,1.3,1,0.453,0,L,16,64.9,1193.618,1196.548,1197,1197.003,0,0,12.09802555,0.141421356,0.124721913
1,22102402,354,Low,10,Vague,1,10,16,31,31.7,64.9,7.2,16,31,10,64.9,7.2,31.7,2,0.655,0,L,16,64.9,1197.506,1198.594,1199.249,1199.251,0,0,1.219289411,12.09802555,4.166799998
1,22102402,355,Low,10,Vague,1,10,18,19,31.7,89.9,3,18,19,10,89.9,3,31.7,2,0.751,0.001,L,18,89.9,1199.754,1201.61,1202.361,1202.363,0,0,1.219289411,0.141421356,1.30979218
1,22102402,356,Low,10,Precise,0,14,15,5,17.3,42.7,8.9,15,5,14,42.7,8.9,17.3,2,1.207,0.001,L,15,42.7,1202.866,1205.625,1206.833,1206.835,0,1,1.465908895,1.067707825,0.79302515
1,22102402,357,Low,10,Precise,0,10,18,5,31.7,89.9,8.9,5,18,10,8.9,89.9,31.7,2,0.998,0.001,D,18,89.9,1207.338,1209.499,1210.497,1210.499,0,1,1.219289411,0.141421356,0.79302515
1,22102402,358,Low,10,Vague,1,16,17,25,64.9,90,5,25,17,16,5,90,64.9,2,0.759,0,D,17,90,1211.002,1213.034,1213.793,1213.795,0,0,12.09802555,0.047140452,1.987181141
1,22102402,359,Low,10,Precise,0,15,18,5,42.7,89.9,8.9,5,18,15,8.9,89.9,42.7,2,0.755,0,D,18,89.9,1214.297,1217.173,1217.929,1217.931,0,1,1.067707825,0.141421356,0.79302515
1,22102402,360,Low,10,Precise,0,16,17,5,64.9,90,8.9,5,17,16,8.9,90,64.9,2,1.002,0,D,17,90,1218.435,1219.703,1220.704,1220.707,0,1,12.09802555,0.047140452,0.79302515
1,22102403,1,Low,10,Precise,0,10,15,5,8.9,35.8,5.2,5,15,10,5.2,35.8,8.9,1,0.426,0.001,R,10,8.9,3.15,5.333,5.76,5.763,0,1,4.489988864,38.30216124,2.322833519
1,22102403,2,Low,10,Precise,0,8,18,3,40.3,42.1,3.3,3,8,18,3.3,40.3,42.1,1,0.001,2.064,D,8,40.3,6.268,7.823,7.823,7.837,0,1,35.44209675,36.16419346,1.675974012
1,22102403,3,Low,10,Vague,1,4,18,20,38.1,42.1,1.8,20,4,18,1.8,38.1,42.1,2,0.518,0,R,18,42.1,8.341,9.361,9.879,9.882,0,0,36.73203264,36.16419346,1.014341604
1,22102403,4,Low,10,Precise,0,10,8,11,8.9,40.3,7.1,11,10,8,7.1,8.9,40.3,3,0.368,0,L,11,7.1,10.387,12.551,12.92,12.922,0,1,4.489988864,35.44209675,2.367840085
1,22102403,5,Low,10,Precise,0,10,18,5,8.9,42.1,5.2,10,5,18,8.9,5.2,42.1,3,0.393,0.001,D,5,5.2,13.426,16.191,16.584,16.588,0,1,4.489988864,36.16419346,2.322833519
1,22102403,6,Low,10,Precise,0,2,4,7,33.6,38.1,5,2,4,7,33.6,38.1,5,3,0.417,0,R,7,5,17.093,19.663,20.08,20.082,0,1,39.8928565,36.73203264,2.44176621
1,22102403,7,Low,10,Precise,0,15,18,5,35.8,42.1,5.2,18,5,15,42.1,5.2,35.8,2,0.407,0.001,L,18,42.1,20.585,21.521,21.928,21.93,0,1,38.30216124,36.16419346,2.322833519
1,22102403,8,Low,10,Vague,1,2,15,23,33.6,35.8,2.5,15,23,2,35.8,2.5,33.6,3,0.403,0.001,D,23,2.5,22.433,23.708,24.112,24.114,0,0,39.8928565,38.30216124,1.203698006
1,22102403,9,Low,10,Precise,0,10,15,9,8.9,35.8,2.2,10,15,9,8.9,35.8,2.2,1,0.453,0.001,L,10,8.9,24.617,25.139,25.592,25.594,0,1,4.489988864,38.30216124,1.040299102
1,22102403,10,Low,10,Precise,0,2,15,9,33.6,35.8,2.2,2,9,15,33.6,2.2,35.8,2,0.338,0,R,15,35.8,26.096,28.678,29.015,29.018,0,1,39.8928565,38.30216124,1.040299102
1,22102403,11,Low,10,Vague,1,2,18,23,33.6,42.1,2.5,18,23,2,42.1,2.5,33.6,2,0.715,0.001,L,18,42.1,29.521,32.212,32.927,32.93,0,0,39.8928565,36.16419346,1.203698006
1,22102403,12,Low,10,Precise,0,15,18,9,35.8,42.1,2.2,9,18,15,2.2,42.1,35.8,2,0,2.078,D,18,42.1,33.432,35.005,35.006,35.015,0,1,38.30216124,36.16419346,1.040299102
1,22102403,13,Low,10,Vague,1,4,8,19,38.1,40.3,2.4,19,4,8,2.4,38.1,40.3,2,0.458,0,R,8,40.3,35.518,37.293,37.751,37.754,0,0,36.73203264,35.44209675,0.711805217
1,22102403,14,Low,10,Vague,1,2,18,20,33.6,42.1,1.8,18,2,20,42.1,33.6,1.8,1,0.539,0.001,D,2,33.6,38.256,40.645,41.184,41.186,0,0,39.8928565,36.16419346,1.014341604
1,22102403,15,Low,10,Vague,1,2,15,20,33.6,35.8,1.8,2,15,20,33.6,35.8,1.8,1,0.174,0.001,L,2,33.6,41.689,42.994,43.168,43.171,0,0,39.8928565,38.30216124,1.014341604
1,22102403,16,Low,10,Precise,0,8,18,11,40.3,42.1,7.1,18,11,8,42.1,7.1,40.3,2,0.039,0.001,L,18,42.1,43.673,45.873,45.911,45.914,0,1,35.44209675,36.16419346,2.367840085
1,22102403,17,Low,10,Precise,0,4,18,5,38.1,42.1,5.2,4,18,5,38.1,42.1,5.2,1,4.191,0,L,4,38.1,46.417,48.424,52.616,52.618,0,1,36.73203264,36.16419346,2.322833519
1,22102403,18,Low,10,Precise,0,10,2,7,8.9,33.6,5,7,2,10,5,33.6,8.9,1,1.23,0.001,R,10,8.9,53.121,55.282,56.512,56.514,0,1,4.489988864,39.8928565,2.44176621
1,22102403,19,Low,10,Precise,0,2,15,13,33.6,35.8,3.8,13,2,15,3.8,33.6,35.8,3,0.437,0,L,13,3.8,57.016,59.507,59.944,59.946,0,1,39.8928565,38.30216124,2.328089345
1,22102403,20,Low,10,Precise,0,10,4,3,8.9,38.1,3.3,3,4,10,3.3,38.1,8.9,2,0.281,0,D,4,38.1,60.449,60.951,61.231,61.234,0,1,4.489988864,36.73203264,1.675974012
1,22102403,21,Low,10,Vague,1,2,18,31,33.6,42.1,4.1,18,2,31,42.1,33.6,4.1,3,5.533,0,R,31,4.1,61.737,64.65,70.183,70.186,0,0,39.8928565,36.16419346,0.816496581
1,22102403,22,Low,10,Precise,0,10,4,5,8.9,38.1,5.2,5,10,4,5.2,8.9,38.1,3,0.667,0.001,L,5,5.2,70.689,72.988,73.655,73.658,0,1,4.489988864,36.73203264,2.322833519
1,22102403,23,Low,10,Vague,1,10,8,23,8.9,40.3,2.5,8,23,10,40.3,2.5,8.9,1,0.884,0.001,R,10,8.9,74.16,75.987,76.872,76.874,0,0,4.489988864,35.44209675,1.203698006
1,22102403,24,Low,10,Vague,1,4,8,23,38.1,40.3,2.5,4,23,8,38.1,2.5,40.3,1,0.568,0,L,4,38.1,77.377,78.432,78.999,79.002,0,0,36.73203264,35.44209675,1.203698006
1,22102403,25,Low,10,Vague,1,4,18,31,38.1,42.1,4.1,18,4,31,42.1,38.1,4.1,2,4.025,0.001,L,18,42.1,79.504,82.366,86.391,86.394,0,0,36.73203264,36.16419346,0.816496581
1,22102403,26,Low,10,Vague,1,15,18,20,35.8,42.1,1.8,20,15,18,1.8,35.8,42.1,3,1.01,0,L,20,1.8,86.896,88.325,89.335,89.338,0,0,38.30216124,36.16419346,1.014341604
1,22102403,27,Low,10,Vague,1,2,4,33,33.6,38.1,5,4,33,2,38.1,5,33.6,3,1.789,0.001,D,33,5,89.84,92.41,94.2,94.202,0,0,39.8928565,36.73203264,3.278210894
1,22102403,28,Low,10,Vague,1,15,4,31,35.8,38.1,4.1,4,15,31,38.1,35.8,4.1,3,0.855,0,R,31,4.1,94.705,95.457,96.312,96.314,0,0,38.30216124,36.73203264,0.816496581
1,22102403,29,Low,10,Vague,1,10,8,19,8.9,40.3,2.4,8,19,10,40.3,2.4,8.9,1,1.18,0.001,R,10,8.9,96.817,98.835,100.015,100.018,0,0,4.489988864,35.44209675,0.711805217
1,22102403,30,Low,10,Vague,1,10,4,33,8.9,38.1,5,4,10,33,38.1,8.9,5,2,0.389,0,L,4,38.1,100.52,102.266,102.655,102.658,0,0,4.489988864,36.73203264,3.278210894
1,22102403,31,Low,10,Vague,1,10,18,20,8.9,42.1,1.8,20,10,18,1.8,8.9,42.1,3,0.644,0,L,20,1.8,103.16,106.075,106.719,106.722,0,0,4.489988864,36.16419346,1.014341604
1,22102403,32,Low,10,Vague,1,4,8,20,38.1,40.3,1.8,4,20,8,38.1,1.8,40.3,2,2.633,0,R,8,40.3,107.224,108.023,110.655,110.658,0,0,36.73203264,35.44209675,1.014341604
1,22102403,33,Low,10,Precise,0,4,18,9,38.1,42.1,2.2,18,4,9,42.1,38.1,2.2,2,0.743,0,L,18,42.1,111.16,113.36,114.103,114.106,0,1,36.73203264,36.16419346,1.040299102
1,22102403,34,Low,10,Vague,1,4,18,30,38.1,42.1,3.4,30,4,18,3.4,38.1,42.1,1,0.51,0,D,4,38.1,114.608,116.609,117.12,117.122,0,0,36.73203264,36.16419346,1.312334646
1,22102403,35,Low,10,Vague,1,10,15,31,8.9,35.8,4.1,10,15,31,8.9,35.8,4.1,1,0.528,0,L,10,8.9,117.624,118.911,119.439,119.442,0,0,4.489988864,38.30216124,0.816496581
1,22102403,36,Low,10,Vague,1,15,4,30,35.8,38.1,3.4,4,15,30,38.1,35.8,3.4,3,0.367,0.001,R,30,3.4,119.944,120.984,121.352,121.354,0,0,38.30216124,36.73203264,1.312334646
1,22102403,37,Low,10,Vague,1,15,4,19,35.8,38.1,2.4,15,4,19,35.8,38.1,2.4,2,0.383,0,D,4,38.1,121.856,122.432,122.815,122.818,0,0,38.30216124,36.73203264,0.711805217
1,22102403,38,Low,10,Vague,1,10,4,23,8.9,38.1,2.5,4,23,10,38.1,2.5,8.9,2,0.322,0,L,4,38.1,123.32,124.549,124.871,124.874,0,0,4.489988864,36.73203264,1.203698006
1,22102403,39,Low,10,Precise,0,10,8,13,8.9,40.3,3.8,10,8,13,8.9,40.3,3.8,2,0.672,0,D,8,40.3,125.377,128.287,128.959,128.962,0,1,4.489988864,35.44209675,2.328089345
1,22102403,40,Low,10,Precise,0,2,15,3,33.6,35.8,3.3,2,3,15,33.6,3.3,35.8,2,0.73,0.001,R,15,35.8,129.465,130.877,131.607,131.61,0,1,39.8928565,38.30216124,1.675974012
1,22102403,41,Low,10,Vague,1,10,15,20,8.9,35.8,1.8,20,10,15,1.8,8.9,35.8,3,0.533,0,L,20,1.8,132.112,132.714,133.247,133.25,0,0,4.489988864,38.30216124,1.014341604
1,22102403,42,Low,10,Vague,1,2,4,23,33.6,38.1,2.5,2,4,23,33.6,38.1,2.5,2,0.102,0,D,4,38.1,133.752,134.746,134.847,134.85,0,0,39.8928565,36.73203264,1.203698006
1,22102403,43,Low,10,Vague,1,2,4,19,33.6,38.1,2.4,2,4,19,33.6,38.1,2.4,3,2.136,0,R,19,2.4,135.352,135.871,138.007,138.01,0,0,39.8928565,36.73203264,0.711805217
1,22102403,44,Low,10,Vague,1,2,8,19,33.6,40.3,2.4,19,8,2,2.4,40.3,33.6,2,0.647,0.001,D,8,40.3,138.512,139.417,140.064,140.066,0,0,39.8928565,35.44209675,0.711805217
1,22102403,45,Low,10,Precise,0,10,4,11,8.9,38.1,7.1,11,4,10,7.1,38.1,8.9,3,0.81,0.001,L,11,7.1,140.57,143.358,144.168,144.17,0,1,4.489988864,36.73203264,2.367840085
1,22102403,46,Low,10,Precise,0,10,2,3,8.9,33.6,3.3,10,2,3,8.9,33.6,3.3,1,8.367,0.001,L,10,8.9,144.673,145.224,153.591,153.594,0,1,4.489988864,39.8928565,1.675974012
1,22102403,47,Low,10,Vague,1,10,4,31,8.9,38.1,4.1,4,10,31,38.1,8.9,4.1,3,0.937,0.001,R,31,4.1,154.096,155.254,156.191,156.194,0,0,4.489988864,36.73203264,0.816496581
1,22102403,48,Low,10,Vague,1,2,18,19,33.6,42.1,2.4,18,2,19,42.1,33.6,2.4,1,1.05,0,D,2,33.6,156.697,158.877,159.927,159.93,0,0,39.8928565,36.16419346,0.711805217
1,22102403,49,Low,10,Vague,1,8,18,30,40.3,42.1,3.4,18,30,8,42.1,3.4,40.3,2,0.485,0,L,18,42.1,160.432,161.746,162.231,162.234,0,0,35.44209675,36.16419346,1.312334646
1,22102403,50,Low,10,Precise,0,2,4,5,33.6,38.1,5.2,4,5,2,38.1,5.2,33.6,1,0.538,0,R,2,33.6,162.737,164.973,165.511,165.514,0,1,39.8928565,36.73203264,2.322833519
1,22102403,51,Low,10,Precise,0,2,4,9,33.6,38.1,2.2,4,9,2,38.1,2.2,33.6,2,0.404,0.001,L,4,38.1,166.016,167.556,167.96,167.962,0,1,39.8928565,36.73203264,1.040299102
1,22102403,53,Low,10,Vague,1,10,4,19,8.9,38.1,2.4,4,10,19,38.1,8.9,2.4,1,0.038,0.001,D,10,8.9,182.713,185.265,185.303,185.307,0,0,4.489988864,36.73203264,0.711805217
1,22102403,54,Low,10,Precise,0,15,8,11,35.8,40.3,7.1,11,15,8,7.1,35.8,40.3,3,0.649,0,L,11,7.1,185.81,187.503,188.151,188.154,0,1,38.30216124,35.44209675,2.367840085
1,22102403,55,Low,10,Vague,1,10,15,19,8.9,35.8,2.4,15,10,19,35.8,8.9,2.4,3,1.04,0,R,19,2.4,188.657,191.031,192.071,192.074,0,0,4.489988864,38.30216124,0.711805217
1,22102403,56,Low,10,Precise,0,4,18,7,38.1,42.1,5,4,7,18,38.1,5,42.1,3,0.428,0,D,7,5,192.576,195.507,195.935,195.938,0,1,36.73203264,36.16419346,2.44176621
1,22102403,57,Low,10,Vague,1,2,4,31,33.6,38.1,4.1,2,31,4,33.6,4.1,38.1,1,0.445,0,L,2,33.6,196.44,197.499,197.943,197.946,0,0,39.8928565,36.73203264,0.816496581
1,22102403,58,Low,10,Vague,1,2,15,19,33.6,35.8,2.4,15,19,2,35.8,2.4,33.6,1,0.494,0,R,2,33.6,198.448,200.017,200.511,200.514,0,0,39.8928565,38.30216124,0.711805217
1,22102403,59,Low,10,Vague,1,2,15,33,33.6,35.8,5,2,33,15,33.6,5,35.8,3,1.726,0,D,33,5,201.016,202.073,203.799,203.802,0,0,39.8928565,38.30216124,3.278210894
1,22102403,60,Low,10,Vague,1,8,18,19,40.3,42.1,2.4,19,18,8,2.4,42.1,40.3,1,0.687,0.001,R,8,40.3,204.304,205.216,205.903,205.906,0,0,35.44209675,36.16419346,0.711805217
1,22102403,61,Low,10,Precise,0,10,4,13,8.9,38.1,3.8,10,13,4,8.9,3.8,38.1,3,1.064,0.001,D,13,3.8,211.803,213.879,214.943,214.946,0,1,4.489988864,36.73203264,2.328089345
1,22102403,62,Low,10,Precise,0,15,4,3,35.8,38.1,3.3,4,3,15,38.1,3.3,35.8,2,0.506,0.001,L,4,38.1,215.449,216.822,217.328,217.33,0,1,38.30216124,36.73203264,1.675974012
1,22102403,63,Low,10,Vague,1,4,18,23,38.1,42.1,2.5,18,23,4,42.1,2.5,38.1,1,0.394,0.001,R,4,38.1,217.833,218.814,219.207,219.21,0,0,36.73203264,36.16419346,1.203698006
1,22102403,64,Low,10,Vague,1,15,8,31,35.8,40.3,4.1,31,15,8,4.1,35.8,40.3,3,1.314,0,L,31,4.1,219.713,221.437,222.751,222.754,0,0,38.30216124,35.44209675,0.816496581
1,22102403,65,Low,10,Precise,0,10,4,9,8.9,38.1,2.2,9,10,4,2.2,8.9,38.1,2,0.786,0.001,R,4,38.1,223.256,224.613,225.399,225.402,0,1,4.489988864,36.73203264,1.040299102
1,22102403,66,Low,10,Vague,1,2,8,33,33.6,40.3,5,33,2,8,5,33.6,40.3,1,0.977,0.001,D,2,33.6,225.904,228.519,229.496,229.498,0,0,39.8928565,35.44209675,3.278210894
1,22102403,67,Low,10,Vague,1,2,8,23,33.6,40.3,2.5,2,8,23,33.6,40.3,2.5,3,2.06,0.001,R,23,2.5,230.001,232.707,234.767,234.77,0,0,39.8928565,35.44209675,1.203698006
1,22102403,68,Low,10,Precise,0,8,18,5,40.3,42.1,5.2,8,5,18,40.3,5.2,42.1,1,0.646,0,L,8,40.3,235.273,236.929,237.575,237.578,0,1,35.44209675,36.16419346,2.322833519
1,22102403,69,Low,10,Precise,0,4,8,13,38.1,40.3,3.8,13,8,4,3.8,40.3,38.1,2,0.155,0.001,D,8,40.3,238.08,238.692,238.847,238.85,0,1,36.73203264,35.44209675,2.328089345
1,22102403,70,Low,10,Precise,0,10,2,11,8.9,33.6,7.1,10,11,2,8.9,7.1,33.6,1,0.395,0,L,10,8.9,239.352,240.508,240.903,240.906,0,1,4.489988864,39.8928565,2.367840085
1,22102403,71,Low,10,Vague,1,10,8,31,8.9,40.3,4.1,8,31,10,40.3,4.1,8.9,3,0.516,0.001,D,31,4.1,241.408,242.067,242.583,242.586,0,0,4.489988864,35.44209675,0.816496581
1,22102403,72,Low,10,Precise,0,15,8,9,35.8,40.3,2.2,9,8,15,2.2,40.3,35.8,1,0.534,0,R,15,35.8,243.088,244.482,245.015,245.018,0,1,38.30216124,35.44209675,1.040299102
1,22102403,73,Low,10,Vague,1,15,18,23,35.8,42.1,2.5,15,18,23,35.8,42.1,2.5,1,0,2.742,L,15,35.8,245.52,247.757,247.757,247.762,0,0,38.30216124,36.16419346,1.203698006
1,22102403,74,Low,10,Precise,0,2,4,13,33.6,38.1,3.8,13,4,2,3.8,38.1,33.6,2,1.413,0.001,D,4,38.1,248.265,248.979,250.392,250.394,0,1,39.8928565,36.73203264,2.328089345
1,22102403,75,Low,10,Vague,1,15,18,30,35.8,42.1,3.4,18,30,15,42.1,3.4,35.8,3,2.298,0.001,D,30,3.4,250.897,252.229,254.528,254.53,0,0,38.30216124,36.16419346,1.312334646
1,22102403,76,Low,10,Precise,0,2,8,3,33.6,40.3,3.3,3,8,2,3.3,40.3,33.6,1,3.895,0,R,2,33.6,255.033,256.017,259.911,259.914,0,1,39.8928565,35.44209675,1.675974012
1,22102403,77,Low,10,Precise,0,10,8,5,8.9,40.3,5.2,10,5,8,8.9,5.2,40.3,1,0.457,0,L,10,8.9,260.416,263.391,263.847,263.85,0,1,4.489988864,35.44209675,2.322833519
1,22102403,78,Low,10,Precise,0,2,18,7,33.6,42.1,5,18,7,2,42.1,5,33.6,3,1.067,0,D,7,5,264.352,265.548,266.615,266.617,0,1,39.8928565,36.16419346,2.44176621
1,22102403,79,Low,10,Precise,0,15,18,3,35.8,42.1,3.3,3,15,18,3.3,35.8,42.1,2,0.935,0,R,18,42.1,267.12,267.744,268.679,268.681,0,1,38.30216124,36.16419346,1.675974012
1,22102403,80,Low,10,Precise,0,2,8,11,33.6,40.3,7.1,8,11,2,40.3,7.1,33.6,2,1.36,0,L,8,40.3,269.184,270.983,272.343,272.346,0,1,39.8928565,35.44209675,2.367840085
1,22102403,81,Low,10,Precise,0,2,18,9,33.6,42.1,2.2,9,2,18,2.2,33.6,42.1,1,0.676,0,D,2,33.6,272.848,274.9,275.575,275.578,0,1,39.8928565,36.16419346,1.040299102
1,22102403,82,Low,10,Vague,1,10,18,31,8.9,42.1,4.1,18,10,31,42.1,8.9,4.1,3,0.949,0.001,R,31,4.1,276.08,277.451,278.399,278.402,0,0,4.489988864,36.16419346,0.816496581
1,22102403,83,Low,10,Vague,1,2,8,20,33.6,40.3,1.8,20,2,8,1.8,33.6,40.3,3,0.708,0.001,L,20,1.8,278.905,281.827,282.536,282.538,0,0,39.8928565,35.44209675,1.014341604
1,22102403,84,Low,10,Precise,0,15,8,3,35.8,40.3,3.3,8,3,15,40.3,3.3,35.8,3,0.645,0,D,3,3.3,283.041,283.818,284.463,284.466,0,1,38.30216124,35.44209675,1.675974012
1,22102403,85,Low,10,Vague,1,2,4,20,33.6,38.1,1.8,2,20,4,33.6,1.8,38.1,3,0.996,0.001,D,20,1.8,284.969,286.171,287.167,287.17,0,0,39.8928565,36.73203264,1.014341604
1,22102403,86,Low,10,Precise,0,4,8,3,38.1,40.3,3.3,4,3,8,38.1,3.3,40.3,1,0.731,0.001,L,4,38.1,287.673,290.596,291.327,291.33,0,1,36.73203264,35.44209675,1.675974012
1,22102403,87,Low,10,Precise,0,8,18,13,40.3,42.1,3.8,18,8,13,42.1,40.3,3.8,1,0.71,0,D,8,40.3,291.832,293.009,293.719,293.721,0,1,35.44209675,36.16419346,2.328089345
1,22102403,88,Low,10,Precise,0,10,18,7,8.9,42.1,5,18,7,10,42.1,5,8.9,3,1.115,0.001,D,7,5,294.224,297.132,298.247,298.25,0,1,4.489988864,36.16419346,2.44176621
1,22102403,89,Low,10,Vague,1,8,18,23,40.3,42.1,2.5,8,23,18,40.3,2.5,42.1,1,0.941,0,L,8,40.3,298.752,299.89,300.831,300.833,0,0,35.44209675,36.16419346,1.203698006
1,22102403,90,Low,10,Precise,0,15,8,13,35.8,40.3,3.8,13,15,8,3.8,35.8,40.3,2,0.733,0.001,R,8,40.3,301.336,303.042,303.775,303.778,0,1,38.30216124,35.44209675,2.328089345
1,22102403,91,Low,10,Precise,0,2,8,9,33.6,40.3,2.2,8,9,2,40.3,2.2,33.6,2,7.993,0.001,L,8,40.3,304.28,307.23,315.223,315.226,0,1,39.8928565,35.44209675,1.040299102
1,22102403,92,Low,10,Vague,1,10,18,33,8.9,42.1,5,18,33,10,42.1,5,8.9,1,0.971,0,R,10,8.9,315.729,316.828,317.799,317.802,0,0,4.489988864,36.16419346,3.278210894
1,22102403,93,Low,10,Precise,0,2,8,7,33.6,40.3,5,2,8,7,33.6,40.3,5,1,1.186,0,L,2,33.6,318.304,320.389,321.575,321.578,0,1,39.8928565,35.44209675,2.44176621
1,22102403,94,Low,10,Vague,1,15,4,33,35.8,38.1,5,15,33,4,35.8,5,38.1,3,1.289,0,D,33,5,322.08,324.909,326.199,326.202,0,0,38.30216124,36.73203264,3.278210894
1,22102403,95,Low,10,Precise,0,10,8,7,8.9,40.3,5,10,7,8,8.9,5,40.3,3,0.628,0.001,D,7,5,326.704,327.324,327.951,327.954,0,1,4.489988864,35.44209675,2.44176621
1,22102403,96,Low,10,Precise,0,15,4,9,35.8,38.1,2.2,4,9,15,38.1,2.2,35.8,3,0.61,0,D,9,2.2,328.457,328.998,329.607,329.609,0,1,38.30216124,36.73203264,1.040299102
1,22102403,97,Low,10,Precise,0,15,18,13,35.8,42.1,3.8,18,15,13,42.1,35.8,3.8,2,0.413,0,L,18,42.1,330.113,330.842,331.255,331.258,0,1,38.30216124,36.16419346,2.328089345
1,22102403,98,Low,10,Vague,1,10,4,30,8.9,38.1,3.4,4,10,30,38.1,8.9,3.4,1,0.628,0,D,10,8.9,331.761,333.571,334.199,334.202,0,0,4.489988864,36.73203264,1.312334646
1,22102403,99,Low,10,Vague,1,8,18,31,40.3,42.1,4.1,8,31,18,40.3,4.1,42.1,3,0.717,0,D,31,4.1,334.704,335.458,336.175,336.178,0,0,35.44209675,36.16419346,0.816496581
1,22102403,100,Low,10,Precise,0,15,8,7,35.8,40.3,5,8,7,15,40.3,5,35.8,3,1.123,0,D,7,5,336.68,338.452,339.575,339.578,0,1,38.30216124,35.44209675,2.44176621
1,22102403,101,Low,10,Vague,1,10,2,33,8.9,33.6,5,33,2,10,5,33.6,8.9,2,1.05,0.001,D,2,33.6,340.08,341.518,342.567,342.57,0,0,4.489988864,39.8928565,3.278210894
1,22102403,102,Low,10,Vague,1,10,2,23,8.9,33.6,2.5,10,2,23,8.9,33.6,2.5,2,1.092,0.001,D,2,33.6,343.072,345.643,346.735,346.738,0,0,4.489988864,39.8928565,1.203698006
1,22102403,103,Low,10,Precise,0,2,18,13,33.6,42.1,3.8,18,2,13,42.1,33.6,3.8,1,0.924,0,D,2,33.6,347.241,348.451,349.375,349.378,0,1,39.8928565,36.16419346,2.328089345
1,22102403,104,Low,10,Precise,0,2,18,5,33.6,42.1,5.2,5,2,18,5.2,33.6,42.1,3,0.94,0.001,L,5,5.2,349.881,351.499,352.439,352.444,0,1,39.8928565,36.16419346,2.322833519
1,22102403,105,Low,10,Vague,1,4,8,31,38.1,40.3,4.1,31,4,8,4.1,38.1,40.3,1,0.153,0.001,D,4,38.1,352.947,355.91,356.063,356.066,0,0,36.73203264,35.44209675,0.816496581
1,22102403,106,Low,10,Precise,0,10,2,13,8.9,33.6,3.8,2,10,13,33.6,8.9,3.8,1,0.461,0,D,10,8.9,356.568,359.25,359.711,359.714,0,1,4.489988864,39.8928565,2.328089345
1,22102403,107,Low,10,Vague,1,15,8,20,35.8,40.3,1.8,20,15,8,1.8,35.8,40.3,3,8.28,0,L,20,1.8,360.217,361.686,369.967,369.969,0,0,38.30216124,35.44209675,1.014341604
1,22102403,108,Low,10,Precise,0,4,8,11,38.1,40.3,7.1,4,11,8,38.1,7.1,40.3,3,0.906,0.001,D,11,7.1,370.472,371.685,372.591,372.594,0,1,36.73203264,35.44209675,2.367840085
1,22102403,109,Low,10,Vague,1,15,4,20,35.8,38.1,1.8,15,4,20,35.8,38.1,1.8,3,0.639,0,R,20,1.8,373.096,375.056,375.695,375.697,0,0,38.30216124,36.73203264,1.014341604
1,22102403,110,Low,10,Vague,1,15,18,31,35.8,42.1,4.1,31,15,18,4.1,35.8,42.1,1,1.024,0.001,D,15,35.8,376.2,377.136,378.159,378.162,0,0,38.30216124,36.16419346,0.816496581
1,22102403,111,Low,10,Vague,1,10,2,20,8.9,33.6,1.8,10,20,2,8.9,1.8,33.6,3,2.28,0.001,D,20,1.8,378.665,379.16,381.439,381.442,0,0,4.489988864,39.8928565,1.014341604
1,22102403,112,Low,10,Precise,0,4,8,7,38.1,40.3,5,7,4,8,5,38.1,40.3,3,1.084,0,L,7,5,381.944,383.852,384.935,384.937,0,1,36.73203264,35.44209675,2.44176621
1,22102403,113,Low,10,Vague,1,15,8,30,35.8,40.3,3.4,15,8,30,35.8,40.3,3.4,2,1.144,0,D,8,40.3,385.44,387.023,388.167,388.17,0,0,38.30216124,35.44209675,1.312334646
1,22102403,114,Low,10,Vague,1,2,4,30,33.6,38.1,3.4,2,30,4,33.6,3.4,38.1,2,1.549,0.001,R,4,38.1,388.672,390.058,391.607,391.61,0,0,39.8928565,36.73203264,1.312334646
1,22102403,115,Low,10,Vague,1,2,18,33,33.6,42.1,5,33,2,18,5,33.6,42.1,1,0.608,0.001,D,2,33.6,392.112,394.088,394.695,394.698,0,0,39.8928565,36.16419346,3.278210894
1,22102403,116,Low,10,Precise,0,10,15,3,8.9,35.8,3.3,15,3,10,35.8,3.3,8.9,2,0.812,0.001,L,15,35.8,395.2,395.907,396.719,396.722,0,1,4.489988864,38.30216124,1.675974012
1,22102403,117,Low,10,Vague,1,10,8,33,8.9,40.3,5,33,8,10,5,40.3,8.9,1,0.271,0,R,10,8.9,397.225,398.648,398.919,398.921,0,0,4.489988864,35.44209675,3.278210894
1,22102403,118,Low,10,Precise,0,10,8,9,8.9,40.3,2.2,9,8,10,2.2,40.3,8.9,2,1.487,0.001,D,8,40.3,399.424,400.265,401.751,401.754,0,1,4.489988864,35.44209675,1.040299102
1,22102403,119,Low,10,Precise,0,8,18,9,40.3,42.1,2.2,18,8,9,42.1,40.3,2.2,2,0.769,0,L,18,42.1,402.256,403.342,404.111,404.114,0,1,35.44209675,36.16419346,1.040299102
1,22102403,120,Low,10,Precise,0,2,4,11,33.6,38.1,7.1,11,4,2,7.1,38.1,33.6,2,0.796,0.001,D,4,38.1,404.616,405.795,406.591,406.593,0,1,39.8928565,36.73203264,2.367840085
1,22102403,121,Low,10,Vague,1,4,8,30,38.1,40.3,3.4,4,8,30,38.1,40.3,3.4,1,0.297,0,L,4,38.1,410.987,411.51,411.807,411.81,0,0,36.73203264,35.44209675,1.312334646
1,22102403,122,Low,10,Precise,0,4,18,11,38.1,42.1,7.1,4,11,18,38.1,7.1,42.1,2,0.47,0,R,18,42.1,412.312,413.273,413.743,413.746,0,1,36.73203264,36.16419346,2.367840085
1,22102403,123,Low,10,Precise,0,15,18,7,35.8,42.1,5,7,18,15,5,42.1,35.8,1,0.482,0,R,15,35.8,414.248,416.228,416.711,416.714,0,1,38.30216124,36.16419346,2.44176621
1,22102403,124,Low,10,Vague,1,10,8,30,8.9,40.3,3.4,8,30,10,40.3,3.4,8.9,2,0.538,0,L,8,40.3,417.216,418.349,418.887,418.89,0,0,4.489988864,35.44209675,1.312334646
1,22102403,125,Low,10,Vague,1,10,18,30,8.9,42.1,3.4,18,10,30,42.1,8.9,3.4,1,0.245,0.001,D,10,8.9,419.392,421.426,421.671,421.674,0,0,4.489988864,36.16419346,1.312334646
1,22102403,126,Low,10,Vague,1,15,8,19,35.8,40.3,2.4,19,8,15,2.4,40.3,35.8,3,0,2.166,L,19,2.4,422.176,423.837,423.837,423.847,0,0,38.30216124,35.44209675,0.711805217
1,22102403,127,Low,10,Vague,1,2,18,30,33.6,42.1,3.4,2,30,18,33.6,3.4,42.1,2,0.132,0.001,R,18,42.1,424.351,426.771,426.903,426.906,0,0,39.8928565,36.16419346,1.312334646
1,22102403,128,Low,10,Vague,1,15,18,19,35.8,42.1,2.4,18,19,15,42.1,2.4,35.8,2,0,3.285,L,18,42.1,427.41,430.187,430.188,430.203,0,0,38.30216124,36.16419346,0.711805217
1,22102403,129,Low,10,Precise,0,15,18,11,35.8,42.1,7.1,15,18,11,35.8,42.1,7.1,2,0.279,0.001,D,18,42.1,430.706,432.064,432.343,432.346,0,1,38.30216124,36.16419346,2.367840085
1,22102403,130,Low,10,Vague,1,10,18,19,8.9,42.1,2.4,19,10,18,2.4,8.9,42.1,2,0.421,0.001,R,18,42.1,432.848,435.45,435.871,435.874,0,0,4.489988864,36.16419346,0.711805217
1,22102403,131,Low,10,Precise,0,2,18,3,33.6,42.1,3.3,2,3,18,33.6,3.3,42.1,1,0.627,0,L,2,33.6,436.376,439.26,439.887,439.89,0,1,39.8928565,36.16419346,1.675974012
1,22102403,132,Low,10,Vague,1,4,18,19,38.1,42.1,2.4,18,4,19,42.1,38.1,2.4,1,0.656,0,D,4,38.1,440.393,443.367,444.023,444.026,0,0,36.73203264,36.16419346,0.711805217
1,22102403,133,Low,10,Precise,0,4,18,3,38.1,42.1,3.3,3,18,4,3.3,42.1,38.1,2,1.127,0,D,18,42.1,444.528,446.136,447.263,447.265,0,1,36.73203264,36.16419346,1.675974012
1,22102403,134,Low,10,Vague,1,2,8,30,33.6,40.3,3.4,30,8,2,3.4,40.3,33.6,3,0.842,0,L,30,3.4,447.768,449.981,450.823,450.826,0,0,39.8928565,35.44209675,1.312334646
1,22102403,135,Low,10,Precise,0,10,18,11,8.9,42.1,7.1,11,18,10,7.1,42.1,8.9,3,1.337,0,L,11,7.1,451.328,453.862,455.199,455.201,0,1,4.489988864,36.16419346,2.367840085
1,22102403,136,Low,10,Precise,0,2,4,3,33.6,38.1,3.3,2,4,3,33.6,38.1,3.3,1,0.845,0,L,2,33.6,455.704,458.01,458.855,458.857,0,1,39.8928565,36.73203264,1.675974012
1,22102403,137,Low,10,Precise,0,10,18,9,8.9,42.1,2.2,18,10,9,42.1,8.9,2.2,2,1.38,0.001,L,18,42.1,459.36,461.043,462.423,462.425,0,1,4.489988864,36.16419346,1.040299102
1,22102403,138,Low,10,Vague,1,10,2,31,8.9,33.6,4.1,10,31,2,8.9,4.1,33.6,1,2.224,0.001,L,10,8.9,462.928,464.488,466.711,466.714,0,0,4.489988864,39.8928565,0.816496581
1,22102403,139,Low,10,Vague,1,15,8,33,35.8,40.3,5,33,15,8,5,35.8,40.3,1,0.793,0,D,15,35.8,467.217,468.823,469.615,469.618,0,0,38.30216124,35.44209675,3.278210894
1,22102403,140,Low,10,Precise,0,10,15,7,8.9,35.8,5,7,15,10,5,35.8,8.9,3,0.682,0,L,7,5,470.12,471.589,472.271,472.273,0,1,4.489988864,38.30216124,2.44176621
1,22102403,141,Low,10,Precise,0,4,8,5,38.1,40.3,5.2,5,4,8,5.2,38.1,40.3,3,1.366,0,L,5,5.2,472.776,473.465,474.831,474.833,0,1,36.73203264,35.44209675,2.322833519
1,22102403,142,Low,10,Vague,1,4,8,33,38.1,40.3,5,4,33,8,38.1,5,40.3,2,1.353,0,R,8,40.3,475.336,475.958,477.311,477.314,0,0,36.73203264,35.44209675,3.278210894
1,22102403,143,Low,10,Precise,0,10,18,3,8.9,42.1,3.3,18,3,10,42.1,3.3,8.9,2,0.91,0.001,L,18,42.1,477.816,480.393,481.303,481.306,0,1,4.489988864,36.16419346,1.675974012
1,22102403,144,Low,10,Precise,0,2,18,11,33.6,42.1,7.1,2,11,18,33.6,7.1,42.1,1,0.815,0,L,2,33.6,481.808,484.032,484.847,484.849,0,1,39.8928565,36.16419346,2.367840085
1,22102403,145,Low,10,Vague,1,8,18,33,40.3,42.1,5,8,18,33,40.3,42.1,5,1,0.892,0.001,L,8,40.3,485.352,486.452,487.343,487.346,0,0,35.44209675,36.16419346,3.278210894
1,22102403,146,Low,10,Precise,0,15,4,7,35.8,38.1,5,4,15,7,38.1,35.8,5,1,0.389,0.001,D,15,35.8,487.848,490.434,490.823,490.826,0,1,38.30216124,36.73203264,2.44176621
1,22102403,147,Low,10,Precise,0,10,15,13,8.9,35.8,3.8,13,15,10,3.8,35.8,8.9,2,0.823,0,D,15,35.8,491.328,492.84,493.663,493.665,0,1,4.489988864,38.30216124,2.328089345
1,22102403,148,Low,10,Precise,0,10,4,7,8.9,38.1,5,4,7,10,38.1,5,8.9,2,0.927,0,L,4,38.1,494.168,497.12,498.047,498.049,0,1,4.489988864,36.73203264,2.44176621
1,22102403,149,Low,10,Precise,0,2,15,5,33.6,35.8,5.2,5,15,2,5.2,35.8,33.6,2,0.633,0,D,15,35.8,498.552,499.846,500.479,500.482,0,1,39.8928565,38.30216124,2.322833519
1,22102403,150,Low,10,Vague,1,10,15,30,8.9,35.8,3.4,15,30,10,35.8,3.4,8.9,1,1.127,0,R,10,8.9,500.985,502.504,503.631,503.634,0,0,4.489988864,38.30216124,1.312334646
1,22102403,151,Low,10,Vague,1,8,18,20,40.3,42.1,1.8,20,8,18,1.8,40.3,42.1,3,0.553,0.001,L,20,1.8,504.136,506.382,506.935,506.937,0,0,35.44209675,36.16419346,1.014341604
1,22102403,152,Low,10,Vague,1,10,18,23,8.9,42.1,2.5,18,23,10,42.1,2.5,8.9,2,0.871,0.001,L,18,42.1,507.441,509.256,510.127,510.129,0,0,4.489988864,36.16419346,1.203698006
1,22102403,153,Low,10,Precise,0,10,2,9,8.9,33.6,2.2,2,9,10,33.6,2.2,8.9,1,4.17,0,R,10,8.9,510.632,513.429,517.599,517.602,0,1,4.489988864,39.8928565,1.040299102
1,22102403,154,Low,10,Precise,0,4,8,9,38.1,40.3,2.2,9,8,4,2.2,40.3,38.1,2,2.686,0,D,8,40.3,518.104,518.945,521.631,521.633,0,1,36.73203264,35.44209675,1.040299102
1,22102403,155,Low,10,Vague,1,15,8,23,35.8,40.3,2.5,23,15,8,2.5,35.8,40.3,1,2.289,0,D,15,35.8,522.136,525.093,527.383,527.386,0,0,38.30216124,35.44209675,1.203698006
1,22102403,156,Low,10,Vague,1,10,15,23,8.9,35.8,2.5,10,15,23,8.9,35.8,2.5,1,1.069,0,L,10,8.9,527.888,528.442,529.511,529.513,0,0,4.489988864,38.30216124,1.203698006
1,22102403,157,Low,10,Vague,1,2,15,31,33.6,35.8,4.1,31,2,15,4.1,33.6,35.8,2,4.507,0.001,R,15,35.8,530.016,531.292,535.799,535.802,0,0,39.8928565,38.30216124,0.816496581
1,22102403,158,Low,10,Vague,1,10,4,20,8.9,38.1,1.8,10,20,4,8.9,1.8,38.1,3,0.861,0.001,D,20,1.8,536.304,538.962,539.823,539.825,0,0,4.489988864,36.73203264,1.014341604
1,22102403,159,Low,10,Precise,0,8,18,7,40.3,42.1,5,8,7,18,40.3,5,42.1,2,1.148,0.001,R,18,42.1,540.328,543.139,544.287,544.289,0,1,35.44209675,36.16419346,2.44176621
1,22102403,160,Low,10,Precise,0,15,4,13,35.8,38.1,3.8,13,4,15,3.8,38.1,35.8,2,0.966,0.001,D,4,38.1,544.792,546.017,546.983,546.985,0,1,38.30216124,36.73203264,2.328089345
1,22102403,161,Low,10,Precise,0,15,4,11,35.8,38.1,7.1,11,4,15,7.1,38.1,35.8,3,1.184,0.001,L,11,7.1,547.488,549.959,551.143,551.145,0,1,38.30216124,36.73203264,2.367840085
1,22102403,162,Low,10,Vague,1,10,15,33,8.9,35.8,5,33,10,15,5,8.9,35.8,2,3.239,0,R,15,35.8,551.648,553.416,556.655,556.657,0,0,4.489988864,38.30216124,3.278210894
1,22102403,163,Low,10,Precise,0,2,15,7,33.6,35.8,5,7,15,2,5,35.8,33.6,2,0.727,0.001,D,15,35.8,557.16,558.256,558.983,558.986,0,1,39.8928565,38.30216124,2.44176621
1,22102403,164,Low,10,Precise,0,4,18,13,38.1,42.1,3.8,18,13,4,42.1,3.8,38.1,2,0.757,0,L,18,42.1,559.488,560.378,561.135,561.137,0,1,36.73203264,36.16419346,2.328089345
1,22102403,165,Low,10,Precise,0,10,15,11,8.9,35.8,7.1,11,10,15,7.1,8.9,35.8,3,0.686,0,L,11,7.1,561.64,562.817,563.503,563.505,0,1,4.489988864,38.30216124,2.367840085
1,22102403,166,Low,10,Vague,1,15,4,23,35.8,38.1,2.5,4,23,15,38.1,2.5,35.8,3,0.492,0,D,23,2.5,564.008,566.891,567.383,567.385,0,0,38.30216124,36.73203264,1.203698006
1,22102403,167,Low,10,Precise,0,2,8,13,33.6,40.3,3.8,2,13,8,33.6,3.8,40.3,1,0.652,0,L,2,33.6,567.888,569.579,570.231,570.233,0,1,39.8928565,35.44209675,2.328089345
1,22102403,168,Low,10,Precise,0,10,8,3,8.9,40.3,3.3,10,8,3,8.9,40.3,3.3,1,0.504,0.001,L,10,8.9,570.736,573.135,573.639,573.642,0,1,4.489988864,35.44209675,1.675974012
1,22102403,169,Low,10,Precise,0,15,4,5,35.8,38.1,5.2,4,5,15,38.1,5.2,35.8,3,0.869,0,D,5,5.2,574.144,575.266,576.135,576.137,0,1,38.30216124,36.73203264,2.322833519
1,22102403,170,Low,10,Vague,1,10,2,19,8.9,33.6,2.4,19,2,10,2.4,33.6,8.9,1,0.342,0.001,R,10,8.9,576.64,578.249,578.591,578.594,0,0,4.489988864,39.8928565,0.711805217
1,22102403,171,Low,10,Precise,0,10,2,5,8.9,33.6,5.2,10,2,5,8.9,33.6,5.2,1,1.091,0,L,10,8.9,579.096,579.756,580.847,580.849,0,1,4.489988864,39.8928565,2.322833519
1,22102403,172,Low,10,Precise,0,10,18,13,8.9,42.1,3.8,13,10,18,3.8,8.9,42.1,1,0.814,0,D,10,8.9,581.352,582.361,583.175,583.177,0,1,4.489988864,36.16419346,2.328089345
1,22102403,173,Low,10,Vague,1,10,8,20,8.9,40.3,1.8,10,20,8,8.9,1.8,40.3,2,1.029,0,R,8,40.3,583.68,586.218,587.247,587.249,0,0,4.489988864,35.44209675,1.014341604
1,22102403,174,Low,10,Vague,1,10,2,30,8.9,33.6,3.4,2,10,30,33.6,8.9,3.4,2,0.575,0.001,L,2,33.6,587.752,589.408,589.983,589.985,0,0,4.489988864,39.8928565,1.312334646
1,22102403,175,Low,10,Vague,1,4,18,33,38.1,42.1,5,33,18,4,5,42.1,38.1,1,0.618,0.001,R,4,38.1,590.488,591.653,592.271,592.273,0,0,36.73203264,36.16419346,3.278210894
1,22102403,176,Low,10,Vague,1,15,18,33,35.8,42.1,5,18,15,33,42.1,35.8,5,1,0.499,0,D,15,35.8,592.776,594.676,595.175,595.178,0,0,38.30216124,36.16419346,3.278210894
1,22102403,177,Low,10,Vague,1,2,8,31,33.6,40.3,4.1,8,31,2,40.3,4.1,33.6,2,1.158,0,L,8,40.3,595.68,596.217,597.375,597.377,0,0,39.8928565,35.44209675,0.816496581
1,22102403,178,Low,10,Precise,0,2,15,11,33.6,35.8,7.1,11,15,2,7.1,35.8,33.6,2,2.244,0,D,15,35.8,597.88,598.474,600.719,600.721,0,1,39.8928565,38.30216124,2.367840085
1,22102403,179,Low,10,Vague,1,2,15,30,33.6,35.8,3.4,15,30,2,35.8,3.4,33.6,3,1.738,0,D,30,3.4,601.224,603.533,605.271,605.273,0,0,39.8928565,38.30216124,1.312334646
1,22102403,180,Low,10,Precise,0,15,8,5,35.8,40.3,5.2,15,5,8,35.8,5.2,40.3,1,0.56,0,L,15,35.8,605.776,606.791,607.351,607.353,0,1,38.30216124,35.44209675,2.322833519
1,22102403,181,High,1.5,Precise,0,15,18,6,35.8,42.1,2.7,6,18,15,2.7,42.1,35.8,1,0.514,0,R,15,35.8,614.188,615.149,615.663,615.666,0,1,38.30216124,36.16419346,1.461354014
1,22102403,182,High,1.5,Vague,1,2,18,27,33.6,42.1,3.1,27,18,2,3.1,42.1,33.6,3,0.751,0,L,27,3.1,616.168,618.512,619.263,619.265,0,0,39.8928565,36.16419346,0.63420992
1,22102403,183,High,1.5,Vague,1,15,4,36,35.8,38.1,2.5,15,4,36,35.8,38.1,2.5,2,1.007,0,D,4,38.1,619.768,620.423,621.431,621.433,0,0,38.30216124,36.73203264,2.325224004
1,22102403,184,High,1.5,Vague,1,10,2,24,8.9,33.6,1.6,2,10,24,33.6,8.9,1.6,3,0.426,0.001,R,24,1.6,621.936,623.813,624.239,624.241,0,0,4.489988864,39.8928565,0.573488351
1,22102403,186,High,1.5,Precise,0,15,18,1,35.8,42.1,5.2,15,18,1,35.8,42.1,5.2,2,0.481,0,D,18,42.1,628.825,630.678,631.159,631.161,0,1,38.30216124,36.16419346,1.400793426
1,22102403,187,High,1.5,Precise,0,15,8,12,35.8,40.3,7.2,15,8,12,35.8,40.3,7.2,1,0.627,0,L,15,35.8,631.664,632.339,632.967,632.969,0,1,38.30216124,35.44209675,5.267721413
1,22102403,188,High,1.5,Vague,1,8,18,27,40.3,42.1,3.1,8,18,27,40.3,42.1,3.1,3,0.805,0,R,27,3.1,633.472,634.994,635.799,635.801,0,0,35.44209675,36.16419346,0.63420992
1,22102403,189,High,1.5,Vague,1,10,15,34,8.9,35.8,3.9,15,10,34,35.8,8.9,3.9,2,0.642,0.001,L,15,35.8,636.304,637.869,638.511,638.514,0,0,4.489988864,38.30216124,1.532608524
1,22102403,190,High,1.5,Vague,1,15,8,34,35.8,40.3,3.9,34,15,8,3.9,35.8,40.3,1,0.797,0,D,15,35.8,639.016,641.002,641.799,641.801,0,0,38.30216124,35.44209675,1.532608524
1,22102403,191,High,1.5,Vague,1,2,4,32,33.6,38.1,4.6,2,32,4,33.6,4.6,38.1,2,0.589,0,R,4,38.1,642.304,643.93,644.519,644.522,0,0,39.8928565,36.73203264,2.694438717
1,22102403,192,High,1.5,Precise,0,10,2,12,8.9,33.6,7.2,12,2,10,7.2,33.6,8.9,3,0.755,0,L,12,7.2,645.024,647.883,648.639,648.641,0,1,4.489988864,39.8928565,5.267721413
1,22102403,193,High,1.5,Precise,0,15,18,12,35.8,42.1,7.2,12,18,15,7.2,42.1,35.8,3,0.608,0.001,L,12,7.2,649.144,650.663,651.271,651.273,0,1,38.30216124,36.16419346,5.267721413
1,22102403,194,High,1.5,Precise,0,4,8,16,38.1,40.3,5.3,16,8,4,5.3,40.3,38.1,3,0.755,0,L,16,5.3,651.776,652.62,653.375,653.377,0,1,36.73203264,35.44209675,1.525341492
1,22102403,195,High,1.5,Precise,0,10,2,1,8.9,33.6,5.2,1,10,2,5.2,8.9,33.6,1,0.514,0,D,10,8.9,653.88,654.989,655.503,655.505,0,1,4.489988864,39.8928565,1.400793426
1,22102403,196,High,1.5,Precise,0,15,8,16,35.8,40.3,5.3,15,8,16,35.8,40.3,5.3,3,0.534,0.001,R,16,5.3,656.008,657.665,658.199,658.202,0,1,38.30216124,35.44209675,1.525341492
1,22102403,197,High,1.5,Vague,1,15,4,27,35.8,38.1,3.1,27,4,15,3.1,38.1,35.8,3,0.573,0.001,L,27,3.1,658.705,660.858,661.431,661.433,0,0,38.30216124,36.73203264,0.63420992
1,22102403,198,High,1.5,Precise,0,10,15,16,8.9,35.8,5.3,16,15,10,5.3,35.8,8.9,2,0.468,0.001,D,15,35.8,661.936,664.331,664.799,664.801,0,1,4.489988864,38.30216124,1.525341492
1,22102403,199,High,1.5,Vague,1,2,18,34,33.6,42.1,3.9,18,2,34,42.1,33.6,3.9,3,0.459,0,R,34,3.9,665.304,667.78,668.239,668.241,0,0,39.8928565,36.16419346,1.532608524
1,22102403,200,High,1.5,Vague,1,4,18,32,38.1,42.1,4.6,4,32,18,38.1,4.6,42.1,1,0.385,0,L,4,38.1,668.744,670.166,670.551,670.553,0,0,36.73203264,36.16419346,2.694438717
1,22102403,201,High,1.5,Precise,0,10,8,12,8.9,40.3,7.2,8,10,12,40.3,8.9,7.2,1,0.579,0.001,D,10,8.9,671.056,671.668,672.247,672.25,0,1,4.489988864,35.44209675,5.267721413
1,22102403,202,High,1.5,Precise,0,10,15,17,8.9,35.8,4.5,17,15,10,4.5,35.8,8.9,3,0.881,0,L,17,4.5,672.752,674.373,675.255,675.257,0,1,4.489988864,38.30216124,4.259368759
1,22102403,203,High,1.5,Vague,1,2,4,36,33.6,38.1,2.5,4,2,36,38.1,33.6,2.5,1,0.62,0,D,2,33.6,675.76,678.41,679.031,679.033,0,0,39.8928565,36.73203264,2.325224004
1,22102403,204,High,1.5,Precise,0,8,18,12,40.3,42.1,7.2,8,18,12,40.3,42.1,7.2,3,0.667,0,R,12,7.2,679.535,681.579,682.247,682.249,0,1,35.44209675,36.16419346,5.267721413
1,22102403,205,High,1.5,Precise,0,8,18,16,40.3,42.1,5.3,16,18,8,5.3,42.1,40.3,2,0.496,0,D,18,42.1,682.751,683.759,684.255,684.257,0,1,35.44209675,36.16419346,1.525341492
1,22102403,206,High,1.5,Precise,0,2,18,1,33.6,42.1,5.2,18,2,1,42.1,33.6,5.2,1,1.365,0.001,D,2,33.6,684.76,686.074,687.439,687.442,0,1,39.8928565,36.16419346,1.400793426
1,22102403,210,High,1.5,Precise,0,2,8,12,33.6,40.3,7.2,2,12,8,33.6,7.2,40.3,1,0.486,0,L,2,33.6,703.476,705.145,705.631,705.633,0,1,39.8928565,35.44209675,5.267721413
1,22102403,211,High,1.5,Precise,0,2,15,12,33.6,35.8,7.2,2,15,12,33.6,35.8,7.2,1,0.77,0,L,2,33.6,706.137,706.973,707.743,707.745,0,1,39.8928565,38.30216124,5.267721413
1,22102403,212,High,1.5,Vague,1,2,15,27,33.6,35.8,3.1,15,2,27,35.8,33.6,3.1,3,0.639,0,R,27,3.1,708.248,709.72,710.359,710.361,0,0,39.8928565,38.30216124,0.63420992
1,22102403,214,High,1.5,Vague,1,8,18,34,40.3,42.1,3.9,18,34,8,42.1,3.9,40.3,1,0.571,0,R,8,40.3,715.835,717.06,717.631,717.633,0,0,35.44209675,36.16419346,1.532608524
1,22102403,217,High,1.5,Precise,0,15,18,14,35.8,42.1,3.5,18,15,14,42.1,35.8,3.5,3,0.781,0,R,14,3.5,727.618,729.202,729.983,729.985,0,1,38.30216124,36.16419346,0.91772666
1,22102403,218,High,1.5,Precise,0,2,4,1,33.6,38.1,5.2,2,4,1,33.6,38.1,5.2,1,1.267,0,L,2,33.6,730.488,731.276,732.543,732.545,0,1,39.8928565,36.73203264,1.400793426
1,22102403,220,High,1.5,Vague,1,4,8,24,38.1,40.3,1.6,24,8,4,1.6,40.3,38.1,3,0.107,0,L,24,1.6,737.314,737.948,738.055,738.057,0,0,36.73203264,35.44209675,0.573488351
1,22102403,221,High,1.5,Precise,0,2,4,14,33.6,38.1,3.5,4,2,14,38.1,33.6,3.5,3,0.745,0,R,14,3.5,738.56,739.326,740.071,740.074,0,1,39.8928565,36.73203264,0.91772666
1,22102403,222,High,1.5,Vague,1,10,15,21,8.9,35.8,1.8,10,21,15,8.9,1.8,35.8,3,1.061,0,D,21,1.8,740.576,742.098,743.159,743.161,0,0,4.489988864,38.30216124,0.987702159
1,22102403,223,High,1.5,Vague,1,4,8,34,38.1,40.3,3.9,4,34,8,38.1,3.9,40.3,2,0.611,0,R,8,40.3,743.664,746.491,747.102,747.105,0,0,36.73203264,35.44209675,1.532608524
1,22102403,224,High,1.5,Vague,1,2,15,36,33.6,35.8,2.5,2,36,15,33.6,2.5,35.8,1,1.205,0.001,L,2,33.6,747.608,750.394,751.599,751.601,0,0,39.8928565,38.30216124,2.325224004
1,22102403,225,High,1.5,Vague,1,10,15,36,8.9,35.8,2.5,15,10,36,35.8,8.9,2.5,3,1.237,0.001,R,36,2.5,752.104,754.153,755.391,755.394,0,0,4.489988864,38.30216124,2.325224004
1,22102403,226,High,1.5,Precise,0,2,18,14,33.6,42.1,3.5,14,18,2,3.5,42.1,33.6,2,0.697,0.001,D,18,42.1,755.897,757.429,758.127,758.129,0,1,39.8928565,36.16419346,0.91772666
1,22102403,227,High,1.5,Precise,0,10,4,16,8.9,38.1,5.3,4,16,10,38.1,5.3,8.9,3,0.653,0,D,16,5.3,758.632,761.338,761.991,761.993,0,1,4.489988864,36.73203264,1.525341492
1,22102403,228,High,1.5,Precise,0,10,8,1,8.9,40.3,5.2,8,10,1,40.3,8.9,5.2,3,0.651,0,R,1,5.2,762.496,764.02,764.671,764.673,0,1,4.489988864,35.44209675,1.400793426
1,22102403,229,High,1.5,Vague,1,15,4,21,35.8,38.1,1.8,4,21,15,38.1,1.8,35.8,2,0.184,0.001,L,4,38.1,765.175,767.823,768.007,768.009,0,0,38.30216124,36.73203264,0.987702159
1,22102403,230,High,1.5,Precise,0,4,18,16,38.1,42.1,5.3,16,18,4,5.3,42.1,38.1,2,1.075,0,D,18,42.1,768.512,770.332,771.407,771.409,0,1,36.73203264,36.16419346,1.525341492
1,22102403,231,High,1.5,Vague,1,15,4,32,35.8,38.1,4.6,4,32,15,38.1,4.6,35.8,1,0.699,0,R,15,35.8,771.912,773.172,773.87,773.873,0,0,38.30216124,36.73203264,2.694438717
1,22102403,233,High,1.5,Precise,0,10,18,12,8.9,42.1,7.2,18,10,12,42.1,8.9,7.2,3,0.339,0,R,12,7.2,780.138,782.411,782.75,782.753,0,1,4.489988864,36.16419346,5.267721413
1,22102403,234,High,1.5,Vague,1,10,18,27,8.9,42.1,3.1,18,27,10,42.1,3.1,8.9,1,0.545,0,R,10,8.9,783.256,784.526,785.07,785.073,0,0,4.489988864,36.16419346,0.63420992
1,22102403,235,High,1.5,Vague,1,10,8,27,8.9,40.3,3.1,27,8,10,3.1,40.3,8.9,2,0.675,0.001,D,8,40.3,785.576,787.1,787.775,787.778,0,0,4.489988864,35.44209675,0.63420992
1,22102403,236,High,1.5,Precise,0,4,18,17,38.1,42.1,4.5,4,17,18,38.1,4.5,42.1,3,0.375,0,D,17,4.5,788.28,789.64,790.015,790.017,0,1,36.73203264,36.16419346,4.259368759
1,22102403,237,High,1.5,Precise,0,2,4,17,33.6,38.1,4.5,17,2,4,4.5,33.6,38.1,1,0.264,0.001,D,2,33.6,790.52,791.663,791.927,791.929,0,1,39.8928565,36.73203264,4.259368759
1,22102403,238,High,1.5,Vague,1,15,18,24,35.8,42.1,1.6,18,15,24,42.1,35.8,1.6,1,0.301,0,D,15,35.8,792.432,793.505,793.807,793.809,0,0,38.30216124,36.16419346,0.573488351
1,22102403,239,High,1.5,Vague,1,10,18,34,8.9,42.1,3.9,18,34,10,42.1,3.9,8.9,3,0.282,0.001,D,34,3.9,794.312,795.573,795.855,795.857,0,0,4.489988864,36.16419346,1.532608524
1,22102403,240,High,1.5,Precise,0,4,18,12,38.1,42.1,7.2,12,4,18,7.2,38.1,42.1,1,0.452,0,D,4,38.1,796.36,796.939,797.39,797.393,0,1,36.73203264,36.16419346,5.267721413
1,22102403,241,High,1.5,Precise,0,4,8,14,38.1,40.3,3.5,8,4,14,40.3,38.1,3.5,1,0.41,0,D,4,38.1,802.573,804.452,804.862,804.865,0,1,36.73203264,35.44209675,0.91772666
1,22102403,242,High,1.5,Vague,1,15,8,27,35.8,40.3,3.1,8,27,15,40.3,3.1,35.8,3,0,1.856,D,27,3.1,805.368,806.718,806.718,806.723,0,0,38.30216124,35.44209675,0.63420992
1,22102403,243,High,1.5,Precise,0,10,8,17,8.9,40.3,4.5,8,10,17,40.3,8.9,4.5,1,0.29,0,D,10,8.9,807.226,809.349,809.638,809.641,0,1,4.489988864,35.44209675,4.259368759
1,22102403,244,High,1.5,Precise,0,10,15,12,8.9,35.8,7.2,10,12,15,8.9,7.2,35.8,3,0.374,0,D,12,7.2,810.144,811.633,812.006,812.01,0,1,4.489988864,38.30216124,5.267721413
1,22102403,246,High,1.5,Precise,0,10,18,14,8.9,42.1,3.5,18,14,10,42.1,3.5,8.9,3,1.107,0,D,14,3.5,817.274,818.404,819.511,819.513,0,1,4.489988864,36.16419346,0.91772666
1,22102403,247,High,1.5,Vague,1,10,2,36,8.9,33.6,2.5,36,10,2,2.5,8.9,33.6,2,0.378,0,R,2,33.6,820.016,821.621,821.999,822.001,0,0,4.489988864,39.8928565,2.325224004
1,22102403,248,High,1.5,Precise,0,2,4,12,33.6,38.1,7.2,12,2,4,7.2,33.6,38.1,1,0.522,0.001,D,2,33.6,822.503,824.029,824.551,824.554,0,1,39.8928565,36.73203264,5.267721413
1,22102403,249,High,1.5,Vague,1,8,18,36,40.3,42.1,2.5,18,36,8,42.1,2.5,40.3,1,0.526,0,R,8,40.3,825.057,827.528,828.054,828.057,0,0,35.44209675,36.16419346,2.325224004
1,22102403,250,High,1.5,Vague,1,2,15,32,33.6,35.8,4.6,32,2,15,4.6,33.6,35.8,3,0.863,0,L,32,4.6,828.56,829.991,830.854,830.857,0,0,39.8928565,38.30216124,2.694438717
1,22102403,251,High,1.5,Vague,1,4,8,27,38.1,40.3,3.1,8,27,4,40.3,3.1,38.1,3,0.521,0,D,27,3.1,831.361,833.758,834.279,834.281,0,0,36.73203264,35.44209675,0.63420992
